{"FileOID": "ODM.DEFINE21.TEST.001", "AsOfDateTime": "2021-09-06T13:16:45.495612+00:00", "CreationDateTime": "2021-09-06T13:16:45.495636+00:00", "ODMVersion": "1.3.2", "FileType": "Snapshot", "Originator": "Sam Hume", "SourceSystem": "odmlib", "SourceSystemVersion": "0.2", "Context": "Other", "Study": {"OID": "ODM.CDISC01", "GlobalVariables": {"StudyName": {"_content": "CDISC01"}, "StudyDescription": {"_content": "CDISC Test Study"}, "ProtocolName": {"_content": "CDISC01"}}, "MetaDataVersion": {"OID": "MDV.CDISC01", "Name": "MDV CDISC01", "Description": "Data Definitions for CDISC01", "DefineVersion": "2.1.0", "Standards": {"Standard": [{"OID": "STD.1", "Name": "SDTMIG", "Type": "IG", "Version": "3.1.2", "Status": "Final", "CommentOID": "COM.STD1"}, {"OID": "STD.2", "Name": "CDISC/NCI", "Type": "CT", "Version": "2015-12-18", "Status": "Final", "CommentOID": "COM.CT1"}]}, "AnnotatedCRF": {"DocumentRef": {"leafID": "LF.blankcrf"}}, "SupplementalDoc": {"DocumentRef": [{"leafID": "LF.ReviewersGuide"}, {"leafID": "LF.ComplexAlgorithms"}]}, "ValueListDef": [{"OID": "VL.DA.DAORRES", "ItemRef": [{"ItemOID": "IT.DA.DATESTCD.DISPAMT", "Mandatory": "Yes", "OrderNumber": 1, "WhereClauseRef": [{"WhereClauseOID": "WC.DA.DATESTCD.DISPAMT"}]}, {"ItemOID": "IT.DA.DATESTCD.RETAMT", "Mandatory": "No", "OrderNumber": 2, "WhereClauseRef": [{"WhereClauseOID": "WC.DA.DATESTCD.RETAMT"}]}]}, {"OID": "VL.EG.EGORRES", "ItemRef": [{"ItemOID": "IT.EG.EGTESTCD.INTP", "Mandatory": "No", "OrderNumber": 1, "WhereClauseRef": [{"WhereClauseOID": "WC.EG.EGTESTCD.INTP"}]}, {"ItemOID": "IT.EG.EGTESTCD.PRMEAN", "Mandatory": "No", "OrderNumber": 2, "WhereClauseRef": [{"WhereClauseOID": "WC.EG.EGTESTCD.PRMEAN"}]}, {"ItemOID": "IT.EG.EGTESTCD.QRSDUR", "Mandatory": "No", "OrderNumber": 3, "WhereClauseRef": [{"WhereClauseOID": "WC.EG.EGTESTCD.QRSDUR"}]}, {"ItemOID": "IT.EG.EGTESTCD.QTMEAN", "Mandatory": "No", "OrderNumber": 4, "WhereClauseRef": [{"WhereClauseOID": "WC.EG.EGTESTCD.QTMEAN"}]}, {"ItemOID": "IT.EG.EGTESTCD.VRMEAN", "Mandatory": "No", "OrderNumber": 5, "WhereClauseRef": [{"WhereClauseOID": "WC.EG.EGTESTCD.VRMEAN"}]}]}, {"OID": "VL.EG.EGSTRESC", "ItemRef": [{"ItemOID": "IT.EG.EGTESTCD.QTCB", "Mandatory": "Yes", "OrderNumber": 1, "MethodOID": "MT.QTCB", "WhereClauseRef": [{"WhereClauseOID": "WC.EG.EGTESTCD.QTCB"}]}, {"ItemOID": "IT.EG.EGTESTCD.QTCF", "Mandatory": "Yes", "OrderNumber": 2, "MethodOID": "MT.QTCF", "WhereClauseRef": [{"WhereClauseOID": "WC.EG.EGTESTCD.QTCF"}]}]}, {"OID": "VL.IE.IEORRES", "ItemRef": [{"ItemOID": "IT.IE.IETESTCD.EXCL01", "Mandatory": "No", "OrderNumber": 1, "WhereClauseRef": [{"WhereClauseOID": "WC.IE.IETESTCD.EXCL01"}]}, {"ItemOID": "IT.IE.IETESTCD.EXCL02", "Mandatory": "No", "OrderNumber": 2, "WhereClauseRef": [{"WhereClauseOID": "WC.IE.IETESTCD.EXCL02"}]}, {"ItemOID": "IT.IE.IETESTCD.EXCL03", "Mandatory": "No", "OrderNumber": 3, "WhereClauseRef": [{"WhereClauseOID": "WC.IE.IETESTCD.EXCL03"}]}, {"ItemOID": "IT.IE.IETESTCD.INCL01", "Mandatory": "No", "OrderNumber": 4, "WhereClauseRef": [{"WhereClauseOID": "WC.IE.IETESTCD.INCL01"}]}, {"ItemOID": "IT.IE.IETESTCD.INCL02", "Mandatory": "No", "OrderNumber": 5, "WhereClauseRef": [{"WhereClauseOID": "WC.IE.IETESTCD.INCL02"}]}, {"ItemOID": "IT.IE.IETESTCD.INCL03", "Mandatory": "No", "OrderNumber": 6, "WhereClauseRef": [{"WhereClauseOID": "WC.IE.IETESTCD.INCL03"}]}]}, {"OID": "VL.LB.LBORRES", "ItemRef": [{"ItemOID": "IT.LB.LBTESTCD.BILI.LBCAT.CHEMISTRY.LBSPEC.BLOOD", "Mandatory": "No", "OrderNumber": 1, "WhereClauseRef": [{"WhereClauseOID": "WC.LB.LBTESTCD.BILI.LBCAT.CHEMISTRY.LBSPEC.BLOOD"}]}, {"ItemOID": "IT.LB.LBTESTCD.BUN.LBCAT.CHEMISTRY.LBSPEC.BLOOD", "Mandatory": "No", "OrderNumber": 2, "WhereClauseRef": [{"WhereClauseOID": "WC.LB.LBTESTCD.BUN.LBCAT.CHEMISTRY.LBSPEC.BLOOD"}]}, {"ItemOID": "IT.LB.LBTESTCD.GLUC.LBCAT.CHEMISTRY.LBSPEC.BLOOD", "Mandatory": "No", "OrderNumber": 3, "WhereClauseRef": [{"WhereClauseOID": "WC.LB.LBTESTCD.GLUC.LBCAT.CHEMISTRY.LBSPEC.BLOOD"}]}, {"ItemOID": "IT.LB.LBTESTCD.GLUC.LBCAT.URINALYSIS.LBSPEC.URINE.LBMETHOD.DIPSTICK", "Mandatory": "No", "OrderNumber": 4, "WhereClauseRef": [{"WhereClauseOID": "WC.LB.LBTESTCD.GLUC.LBCAT.URINALYSIS.LBSPEC.URINE.LBMETHOD.DIPSTICK"}]}, {"ItemOID": "IT.LB.LBTESTCD.GLUC.LBCAT.URINALYSIS.LBSPEC.URINE.LBMETHOD.QUANT", "Mandatory": "No", "OrderNumber": 5, "WhereClauseRef": [{"WhereClauseOID": "WC.LB.LBTESTCD.GLUC.LBCAT.URINALYSIS.LBSPEC.URINE.LBMETHOD.QUANT"}]}, {"ItemOID": "IT.LB.LBTESTCD.HCT.LBCAT.HEMATOLOGY.LBSPEC.BLOOD", "Mandatory": "No", "OrderNumber": 6, "WhereClauseRef": [{"WhereClauseOID": "WC.LB.LBTESTCD.HCT.LBCAT.HEMATOLOGY.LBSPEC.BLOOD"}]}, {"ItemOID": "IT.LB.LBTESTCD.HGB.LBCAT.HEMATOLOGY.LBSPEC.BLOOD", "Mandatory": "No", "OrderNumber": 7, "WhereClauseRef": [{"WhereClauseOID": "WC.LB.LBTESTCD.HGB.LBCAT.HEMATOLOGY.LBSPEC.BLOOD"}]}, {"ItemOID": "IT.LB.LBTESTCD.LYM.LBCAT.HEMATOLOGY.LBSPEC.BLOOD", "Mandatory": "No", "OrderNumber": 8, "WhereClauseRef": [{"WhereClauseOID": "WC.LB.LBTESTCD.LYM.LBCAT.HEMATOLOGY.LBSPEC.BLOOD"}]}, {"ItemOID": "IT.LB.LBTESTCD.OCCBLD.LBCAT.URINALYSIS.LBSPEC.URINE", "Mandatory": "No", "OrderNumber": 9, "WhereClauseRef": [{"WhereClauseOID": "WC.LB.LBTESTCD.OCCBLD.LBCAT.URINALYSIS.LBSPEC.URINE"}]}, {"ItemOID": "IT.LB.LBTESTCD.PH.LBCAT.URINALYSIS.LBSPEC.URINE", "Mandatory": "No", "OrderNumber": 10, "WhereClauseRef": [{"WhereClauseOID": "WC.LB.LBTESTCD.PH.LBCAT.URINALYSIS.LBSPEC.URINE"}]}, {"ItemOID": "IT.LB.LBTESTCD.VITB12.LBCAT.CHEMISTRY.LBSPEC.SERUM", "Mandatory": "No", "OrderNumber": 11, "WhereClauseRef": [{"WhereClauseOID": "WC.LB.LBTESTCD.VITB12.LBCAT.CHEMISTRY.LBSPEC.SERUM"}]}, {"ItemOID": "IT.LB.LBTESTCD.VITB9.LBCAT.CHEMISTRY.LBSPEC.BLOOD", "Mandatory": "No", "OrderNumber": 12, "WhereClauseRef": [{"WhereClauseOID": "WC.LB.LBTESTCD.VITB9.LBCAT.CHEMISTRY.LBSPEC.BLOOD"}]}]}, {"OID": "VL.PE.PEORRES", "ItemRef": [{"ItemOID": "IT.PE.PETESTCD.PE01", "Mandatory": "Yes", "OrderNumber": 1, "WhereClauseRef": [{"WhereClauseOID": "WC.PE.PETESTCD.PE01"}]}, {"ItemOID": "IT.PE.PETESTCD.PE02", "Mandatory": "Yes", "OrderNumber": 2, "WhereClauseRef": [{"WhereClauseOID": "WC.PE.PETESTCD.PE02"}]}, {"ItemOID": "IT.PE.PETESTCD.PE03", "Mandatory": "Yes", "OrderNumber": 3, "WhereClauseRef": [{"WhereClauseOID": "WC.PE.PETESTCD.PE03"}]}, {"ItemOID": "IT.PE.PETESTCD.PE04", "Mandatory": "Yes", "OrderNumber": 4, "WhereClauseRef": [{"WhereClauseOID": "WC.PE.PETESTCD.PE04"}]}, {"ItemOID": "IT.PE.PETESTCD.PE05", "Mandatory": "Yes", "OrderNumber": 5, "WhereClauseRef": [{"WhereClauseOID": "WC.PE.PETESTCD.PE05"}]}, {"ItemOID": "IT.PE.PETESTCD.PE06", "Mandatory": "Yes", "OrderNumber": 6, "WhereClauseRef": [{"WhereClauseOID": "WC.PE.PETESTCD.PE06"}]}, {"ItemOID": "IT.PE.PETESTCD.PE07", "Mandatory": "Yes", "OrderNumber": 7, "WhereClauseRef": [{"WhereClauseOID": "WC.PE.PETESTCD.PE07"}]}, {"ItemOID": "IT.PE.PETESTCD.PE08", "Mandatory": "Yes", "OrderNumber": 8, "WhereClauseRef": [{"WhereClauseOID": "WC.PE.PETESTCD.PE08"}]}, {"ItemOID": "IT.PE.PETESTCD.PE09", "Mandatory": "No", "OrderNumber": 9, "WhereClauseRef": [{"WhereClauseOID": "WC.PE.PETESTCD.PE09"}]}]}, {"OID": "VL.SC.SCORRES", "ItemRef": [{"ItemOID": "IT.SC.SCTESTCD.EDLEVEL", "Mandatory": "No", "OrderNumber": 1, "WhereClauseRef": [{"WhereClauseOID": "WC.SC.SCTESTCD.EDLEVEL"}]}, {"ItemOID": "IT.SC.SCTESTCD.MARISTAT", "Mandatory": "No", "OrderNumber": 2, "WhereClauseRef": [{"WhereClauseOID": "WC.SC.SCTESTCD.MARISTAT"}]}, {"ItemOID": "IT.SC.SCTESTCD.SUBJINIT", "Mandatory": "No", "OrderNumber": 3, "WhereClauseRef": [{"WhereClauseOID": "WC.SC.SCTESTCD.SUBJINIT"}]}]}, {"OID": "VL.SUPPAE.QVAL", "ItemRef": [{"ItemOID": "IT.SUPPAE.QNAM.AETRTEM", "Mandatory": "No", "OrderNumber": 1, "MethodOID": "MT.AETRTEM", "WhereClauseRef": [{"WhereClauseOID": "WC.SUPPAE.QNAM.AETRTEM"}]}, {"ItemOID": "IT.SUPPAE.QNAM.HLGT", "Mandatory": "No", "OrderNumber": 2, "WhereClauseRef": [{"WhereClauseOID": "WC.SUPPAE.QNAM.HLGT"}]}, {"ItemOID": "IT.SUPPAE.QNAM.HLT", "Mandatory": "No", "OrderNumber": 3, "WhereClauseRef": [{"WhereClauseOID": "WC.SUPPAE.QNAM.HLT"}]}, {"ItemOID": "IT.SUPPAE.QNAM.LLT", "Mandatory": "No", "OrderNumber": 4, "WhereClauseRef": [{"WhereClauseOID": "WC.SUPPAE.QNAM.LLT"}]}]}, {"OID": "VL.SUPPCM.QVAL", "ItemRef": [{"ItemOID": "IT.SUPPCM.QNAM.ATC4CODE", "Mandatory": "No", "OrderNumber": 1, "WhereClauseRef": [{"WhereClauseOID": "WC.SUPPCM.QNAM.ATC4CODE"}]}, {"ItemOID": "IT.SUPPCM.QNAM.ATC4TERM", "Mandatory": "No", "OrderNumber": 2, "WhereClauseRef": [{"WhereClauseOID": "WC.SUPPCM.QNAM.ATC4TERM"}]}, {"ItemOID": "IT.SUPPCM.QNAM.CPREFCD", "Mandatory": "No", "OrderNumber": 3, "WhereClauseRef": [{"WhereClauseOID": "WC.SUPPCM.QNAM.CPREFCD"}]}, {"ItemOID": "IT.SUPPCM.QNAM.PDDREAS", "Mandatory": "No", "OrderNumber": 4, "WhereClauseRef": [{"WhereClauseOID": "WC.SUPPCM.QNAM.PDDREAS"}]}, {"ItemOID": "IT.SUPPCM.QNAM.PDRESP", "Mandatory": "No", "OrderNumber": 5, "WhereClauseRef": [{"WhereClauseOID": "WC.SUPPCM.QNAM.PDRESP"}]}]}, {"OID": "VL.SUPPDM.QVAL", "ItemRef": [{"ItemOID": "IT.SUPPDM.QNAM.RACE1", "Mandatory": "No", "OrderNumber": 1, "WhereClauseRef": [{"WhereClauseOID": "WC.SUPPDM.QNAM.RACE1"}]}, {"ItemOID": "IT.SUPPDM.QNAM.RACE2", "Mandatory": "No", "OrderNumber": 2, "WhereClauseRef": [{"WhereClauseOID": "WC.SUPPDM.QNAM.RACE2"}]}, {"ItemOID": "IT.SUPPDM.QNAM.RACE3", "Mandatory": "No", "OrderNumber": 3, "WhereClauseRef": [{"WhereClauseOID": "WC.SUPPDM.QNAM.RACE3"}]}, {"ItemOID": "IT.SUPPDM.QNAM.RACEOTH", "Mandatory": "No", "OrderNumber": 4, "WhereClauseRef": [{"WhereClauseOID": "WC.SUPPDM.QNAM.RACEOTH"}]}, {"ItemOID": "IT.SUPPDM.QNAM.RAND", "Mandatory": "No", "OrderNumber": 5, "WhereClauseRef": [{"WhereClauseOID": "WC.SUPPDM.QNAM.RAND"}]}, {"ItemOID": "IT.SUPPDM.QNAM.RANDNO", "Mandatory": "No", "OrderNumber": 6, "WhereClauseRef": [{"WhereClauseOID": "WC.SUPPDM.QNAM.RANDNO"}]}, {"ItemOID": "IT.SUPPDM.QNAM.SAFETY", "Mandatory": "No", "OrderNumber": 7, "MethodOID": "MT.SAFETY", "WhereClauseRef": [{"WhereClauseOID": "WC.SUPPDM.QNAM.SAFETY"}]}]}, {"OID": "VL.SUPPEG.QVAL", "ItemRef": [{"ItemOID": "IT.SUPPEG.QNAM.EGCLSIG", "Mandatory": "No", "OrderNumber": 1, "WhereClauseRef": [{"WhereClauseOID": "WC.SUPPEG.QNAM.EGCLSIG"}]}]}, {"OID": "VL.SUPPEX.QVAL", "ItemRef": [{"ItemOID": "IT.SUPPEX.QNAM.SMNO", "Mandatory": "No", "OrderNumber": 1, "WhereClauseRef": [{"WhereClauseOID": "WC.SUPPEX.QNAM.SMNO"}]}]}, {"OID": "VL.SUPPLB.QVAL", "ItemRef": [{"ItemOID": "IT.SUPPLB.QNAM.LBCLSIG", "Mandatory": "No", "OrderNumber": 1, "MethodOID": "MT.CLSIG", "WhereClauseRef": [{"WhereClauseOID": "WC.SUPPLB.QNAM.LBCLSIG"}]}]}, {"OID": "VL.SUPPQSMM.QVAL", "ItemRef": [{"ItemOID": "IT.SUPPQS.QNAM.RTRINIT", "Mandatory": "No", "OrderNumber": 1, "WhereClauseRef": [{"WhereClauseOID": "WC.SUPPQS.QNAM.RTRINIT"}]}]}, {"OID": "VL.SUPPVS.QVAL", "ItemRef": [{"ItemOID": "IT.SUPPVS.QNAM.VSCLSIG", "Mandatory": "No", "OrderNumber": 1, "MethodOID": "MT.CLSIG", "WhereClauseRef": [{"WhereClauseOID": "WC.SUPPVS.QNAM.VSCLSIG"}]}]}, {"OID": "VL.TS.TSVAL", "ItemRef": [{"ItemOID": "IT.TS.TSPARMCD.ADDON", "Mandatory": "No", "OrderNumber": 1, "WhereClauseRef": [{"WhereClauseOID": "WC.TS.TSPARMCD.ADDON"}]}, {"ItemOID": "IT.TS.TSPARMCD.AGEMAX", "Mandatory": "No", "OrderNumber": 2, "WhereClauseRef": [{"WhereClauseOID": "WC.TS.TSPARMCD.AGEMAX"}]}, {"ItemOID": "IT.TS.TSPARMCD.AGEMIN", "Mandatory": "No", "OrderNumber": 3, "WhereClauseRef": [{"WhereClauseOID": "WC.TS.TSPARMCD.AGEMIN"}]}, {"ItemOID": "IT.TS.TSPARMCD.AGESPAN", "Mandatory": "No", "OrderNumber": 4, "WhereClauseRef": [{"WhereClauseOID": "WC.TS.TSPARMCD.AGESPAN"}]}, {"ItemOID": "IT.TS.TSPARMCD.AGEU", "Mandatory": "No", "OrderNumber": 5, "WhereClauseRef": [{"WhereClauseOID": "WC.TS.TSPARMCD.AGEU"}]}, {"ItemOID": "IT.TS.TSPARMCD.DOSE", "Mandatory": "No", "OrderNumber": 6, "WhereClauseRef": [{"WhereClauseOID": "WC.TS.TSPARMCD.DOSE"}]}, {"ItemOID": "IT.TS.TSPARMCD.DOSFRQ", "Mandatory": "No", "OrderNumber": 7, "WhereClauseRef": [{"WhereClauseOID": "WC.TS.TSPARMCD.DOSFRQ"}]}, {"ItemOID": "IT.TS.TSPARMCD.DOSU", "Mandatory": "No", "OrderNumber": 8, "WhereClauseRef": [{"WhereClauseOID": "WC.TS.TSPARMCD.DOSU"}]}, {"ItemOID": "IT.TS.TSPARMCD.LENGTH", "Mandatory": "No", "OrderNumber": 9, "WhereClauseRef": [{"WhereClauseOID": "WC.TS.TSPARMCD.LENGTH"}]}, {"ItemOID": "IT.TS.TSPARMCD.OBJPRIM", "Mandatory": "No", "OrderNumber": 10, "WhereClauseRef": [{"WhereClauseOID": "WC.TS.TSPARMCD.OBJPRIM"}]}, {"ItemOID": "IT.TS.TSPARMCD.OBJSEC", "Mandatory": "No", "OrderNumber": 11, "WhereClauseRef": [{"WhereClauseOID": "WC.TS.TSPARMCD.OBJSEC"}]}, {"ItemOID": "IT.TS.TSPARMCD.PLANSUB", "Mandatory": "No", "OrderNumber": 12, "WhereClauseRef": [{"WhereClauseOID": "WC.TS.TSPARMCD.PLANSUB"}]}, {"ItemOID": "IT.TS.TSPARMCD.RANDOM", "Mandatory": "No", "OrderNumber": 13, "WhereClauseRef": [{"WhereClauseOID": "WC.TS.TSPARMCD.RANDOM"}]}, {"ItemOID": "IT.TS.TSPARMCD.ROUTE", "Mandatory": "No", "OrderNumber": 14, "WhereClauseRef": [{"WhereClauseOID": "WC.TS.TSPARMCD.ROUTE"}]}, {"ItemOID": "IT.TS.TSPARMCD.SEXPOP", "Mandatory": "No", "OrderNumber": 15, "WhereClauseRef": [{"WhereClauseOID": "WC.TS.TSPARMCD.SEXPOP"}]}, {"ItemOID": "IT.TS.TSPARMCD.SPONSOR", "Mandatory": "No", "OrderNumber": 16, "WhereClauseRef": [{"WhereClauseOID": "WC.TS.TSPARMCD.SPONSOR"}]}, {"ItemOID": "IT.TS.TSPARMCD.TBLIND", "Mandatory": "No", "OrderNumber": 17, "WhereClauseRef": [{"WhereClauseOID": "WC.TS.TSPARMCD.TBLIND"}]}, {"ItemOID": "IT.TS.TSPARMCD.TCNTRL", "Mandatory": "No", "OrderNumber": 18, "WhereClauseRef": [{"WhereClauseOID": "WC.TS.TSPARMCD.TCNTRL"}]}, {"ItemOID": "IT.TS.TSPARMCD.TINDTP", "Mandatory": "No", "OrderNumber": 19, "WhereClauseRef": [{"WhereClauseOID": "WC.TS.TSPARMCD.TINDTP"}]}, {"ItemOID": "IT.TS.TSPARMCD.TITLE", "Mandatory": "No", "OrderNumber": 20, "WhereClauseRef": [{"WhereClauseOID": "WC.TS.TSPARMCD.TITLE"}]}, {"ItemOID": "IT.TS.TSPARMCD.TPHASE", "Mandatory": "No", "OrderNumber": 21, "WhereClauseRef": [{"WhereClauseOID": "WC.TS.TSPARMCD.TPHASE"}]}, {"ItemOID": "IT.TS.TSPARMCD.TRT", "Mandatory": "No", "OrderNumber": 22, "WhereClauseRef": [{"WhereClauseOID": "WC.TS.TSPARMCD.TRT"}]}, {"ItemOID": "IT.TS.TSPARMCD.TTYPE", "Mandatory": "No", "OrderNumber": 23, "WhereClauseRef": [{"WhereClauseOID": "WC.TS.TSPARMCD.TTYPE"}]}]}, {"OID": "VL.VS.VSORRES", "ItemRef": [{"ItemOID": "IT.VS.VSTESTCD.DIABP", "Mandatory": "Yes", "OrderNumber": 1, "WhereClauseRef": [{"WhereClauseOID": "WC.VS.VSTESTCD.DIABP"}]}, {"ItemOID": "IT.VS.VSTESTCD.FRMSIZE", "Mandatory": "No", "OrderNumber": 2, "WhereClauseRef": [{"WhereClauseOID": "WC.VS.VSTESTCD.FRMSIZE"}]}, {"ItemOID": "IT.VS.VSTESTCD.HEIGHT", "Mandatory": "Yes", "OrderNumber": 3, "WhereClauseRef": [{"WhereClauseOID": "WC.VS.VSTESTCD.HEIGHT"}]}, {"ItemOID": "IT.VS.VSTESTCD.PULSE", "Mandatory": "No", "OrderNumber": 4, "WhereClauseRef": [{"WhereClauseOID": "WC.VS.VSTESTCD.PULSE"}]}, {"ItemOID": "IT.VS.VSTESTCD.SYSBP", "Mandatory": "Yes", "OrderNumber": 5, "WhereClauseRef": [{"WhereClauseOID": "WC.VS.VSTESTCD.SYSBP"}]}, {"ItemOID": "IT.VS.VSTESTCD.WEIGHT", "Mandatory": "Yes", "OrderNumber": 6, "WhereClauseRef": [{"WhereClauseOID": "WC.VS.VSTESTCD.WEIGHT"}]}]}, {"OID": "VL.VS.VSORRESU", "ItemRef": [{"ItemOID": "IT.VS.VSTESTCD.HEIGHT.[DM].COUNTRY.CMETRIC", "Mandatory": "Yes", "OrderNumber": 1, "WhereClauseRef": [{"WhereClauseOID": "WC.VS.VSTESTCD.HEIGHT.[DM].COUNTRY.CMETRIC"}]}, {"ItemOID": "IT.VS.VSTESTCD.HEIGHT.[DM].COUNTRY.CNMETRIC", "Mandatory": "Yes", "OrderNumber": 2, "WhereClauseRef": [{"WhereClauseOID": "WC.VS.VSTESTCD.HEIGHT.[DM].COUNTRY.CNMETRIC"}]}, {"ItemOID": "IT.VS.VSTESTCD.WEIGHT.[DM].COUNTRY.CMETRIC", "Mandatory": "Yes", "OrderNumber": 3, "WhereClauseRef": [{"WhereClauseOID": "WC.VS.VSTESTCD.WEIGHT.[DM].COUNTRY.CMETRIC"}]}, {"ItemOID": "IT.VS.VSTESTCD.WEIGHT.[DM].COUNTRY.CNMETRIC", "Mandatory": "Yes", "OrderNumber": 4, "WhereClauseRef": [{"WhereClauseOID": "WC.VS.VSTESTCD.WEIGHT.[DM].COUNTRY.CNMETRIC"}]}]}], "WhereClauseDef": [{"OID": "WC.DA.DATESTCD.DISPAMT", "RangeCheck": [{"SoftHard": "Soft", "ItemOID": "IT.DA.DATESTCD", "Comparator": "EQ", "CheckValue": [{"_content": "DISPAMT"}]}]}, {"OID": "WC.DA.DATESTCD.RETAMT", "RangeCheck": [{"SoftHard": "Soft", "ItemOID": "IT.DA.DATESTCD", "Comparator": "EQ", "CheckValue": [{"_content": "RETAMT"}]}]}, {"OID": "WC.EG.EGTESTCD.INTP", "RangeCheck": [{"SoftHard": "Soft", "ItemOID": "IT.EG.EGTESTCD", "Comparator": "EQ", "CheckValue": [{"_content": "INTP"}]}]}, {"OID": "WC.EG.EGTESTCD.PRMEAN", "RangeCheck": [{"SoftHard": "Soft", "ItemOID": "IT.EG.EGTESTCD", "Comparator": "EQ", "CheckValue": [{"_content": "PRMEAN"}]}]}, {"OID": "WC.EG.EGTESTCD.QRSDUR", "RangeCheck": [{"SoftHard": "Soft", "ItemOID": "IT.EG.EGTESTCD", "Comparator": "EQ", "CheckValue": [{"_content": "QRSDUR"}]}]}, {"OID": "WC.EG.EGTESTCD.QTMEAN", "RangeCheck": [{"SoftHard": "Soft", "ItemOID": "IT.EG.EGTESTCD", "Comparator": "EQ", "CheckValue": [{"_content": "QTMEAN"}]}]}, {"OID": "WC.EG.EGTESTCD.VRMEAN", "RangeCheck": [{"SoftHard": "Soft", "ItemOID": "IT.EG.EGTESTCD", "Comparator": "EQ", "CheckValue": [{"_content": "VRMEAN"}]}]}, {"OID": "WC.EG.EGTESTCD.QTCB", "RangeCheck": [{"SoftHard": "Soft", "ItemOID": "IT.EG.EGTESTCD", "Comparator": "EQ", "CheckValue": [{"_content": "QTCB"}]}]}, {"OID": "WC.EG.EGTESTCD.QTCF", "RangeCheck": [{"SoftHard": "Soft", "ItemOID": "IT.EG.EGTESTCD", "Comparator": "EQ", "CheckValue": [{"_content": "QTCF"}]}]}, {"OID": "WC.IE.IETESTCD.EXCL01", "RangeCheck": [{"SoftHard": "Soft", "ItemOID": "IT.IE.IETESTCD", "Comparator": "EQ", "CheckValue": [{"_content": "EXCL01"}]}]}, {"OID": "WC.IE.IETESTCD.EXCL02", "RangeCheck": [{"SoftHard": "Soft", "ItemOID": "IT.IE.IETESTCD", "Comparator": "EQ", "CheckValue": [{"_content": "EXCL02"}]}]}, {"OID": "WC.IE.IETESTCD.EXCL03", "RangeCheck": [{"SoftHard": "Soft", "ItemOID": "IT.IE.IETESTCD", "Comparator": "EQ", "CheckValue": [{"_content": "EXCL03"}]}]}, {"OID": "WC.IE.IETESTCD.INCL01", "RangeCheck": [{"SoftHard": "Soft", "ItemOID": "IT.IE.IETESTCD", "Comparator": "EQ", "CheckValue": [{"_content": "INCL01"}]}]}, {"OID": "WC.IE.IETESTCD.INCL02", "RangeCheck": [{"SoftHard": "Soft", "ItemOID": "IT.IE.IETESTCD", "Comparator": "EQ", "CheckValue": [{"_content": "INCL02"}]}]}, {"OID": "WC.IE.IETESTCD.INCL03", "RangeCheck": [{"SoftHard": "Soft", "ItemOID": "IT.IE.IETESTCD", "Comparator": "EQ", "CheckValue": [{"_content": "INCL03"}]}]}, {"OID": "WC.LB.LBTESTCD.BILI.LBCAT.CHEMISTRY.LBSPEC.BLOOD", "RangeCheck": [{"SoftHard": "Soft", "ItemOID": "IT.LB.LBTESTCD", "Comparator": "EQ", "CheckValue": [{"_content": "BILI"}]}, {"SoftHard": "Soft", "ItemOID": "IT.LB.LBCAT", "Comparator": "EQ", "CheckValue": [{"_content": "CHEMISTRY"}]}, {"SoftHard": "Soft", "ItemOID": "IT.LB.LBSPEC", "Comparator": "EQ", "CheckValue": [{"_content": "BLOOD"}]}]}, {"OID": "WC.LB.LBTESTCD.BUN.LBCAT.CHEMISTRY.LBSPEC.BLOOD", "RangeCheck": [{"SoftHard": "Soft", "ItemOID": "IT.LB.LBTESTCD", "Comparator": "EQ", "CheckValue": [{"_content": "BUN"}]}, {"SoftHard": "Soft", "ItemOID": "IT.LB.LBCAT", "Comparator": "EQ", "CheckValue": [{"_content": "CHEMISTRY"}]}, {"SoftHard": "Soft", "ItemOID": "IT.LB.LBSPEC", "Comparator": "EQ", "CheckValue": [{"_content": "BLOOD"}]}]}, {"OID": "WC.LB.LBTESTCD.GLUC.LBCAT.CHEMISTRY.LBSPEC.BLOOD", "RangeCheck": [{"SoftHard": "Soft", "ItemOID": "IT.LB.LBTESTCD", "Comparator": "EQ", "CheckValue": [{"_content": "GLUC"}]}, {"SoftHard": "Soft", "ItemOID": "IT.LB.LBCAT", "Comparator": "EQ", "CheckValue": [{"_content": "CHEMISTRY"}]}, {"SoftHard": "Soft", "ItemOID": "IT.LB.LBSPEC", "Comparator": "EQ", "CheckValue": [{"_content": "BLOOD"}]}]}, {"OID": "WC.LB.LBTESTCD.GLUC.LBCAT.URINALYSIS.LBSPEC.URINE.LBMETHOD.DIPSTICK", "RangeCheck": [{"SoftHard": "Soft", "ItemOID": "IT.LB.LBTESTCD", "Comparator": "EQ", "CheckValue": [{"_content": "GLUC"}]}, {"SoftHard": "Soft", "ItemOID": "IT.LB.LBCAT", "Comparator": "EQ", "CheckValue": [{"_content": "URINALYSIS"}]}, {"SoftHard": "Soft", "ItemOID": "IT.LB.LBSPEC", "Comparator": "EQ", "CheckValue": [{"_content": "URINE"}]}, {"SoftHard": "Soft", "ItemOID": "IT.LB.LBMETHOD", "Comparator": "EQ", "CheckValue": [{"_content": "DIPSTICK"}]}]}, {"OID": "WC.LB.LBTESTCD.GLUC.LBCAT.URINALYSIS.LBSPEC.URINE.LBMETHOD.QUANT", "RangeCheck": [{"SoftHard": "Soft", "ItemOID": "IT.LB.LBTESTCD", "Comparator": "EQ", "CheckValue": [{"_content": "GLUC"}]}, {"SoftHard": "Soft", "ItemOID": "IT.LB.LBCAT", "Comparator": "EQ", "CheckValue": [{"_content": "URINALYSIS"}]}, {"SoftHard": "Soft", "ItemOID": "IT.LB.LBSPEC", "Comparator": "EQ", "CheckValue": [{"_content": "URINE"}]}, {"SoftHard": "Soft", "ItemOID": "IT.LB.LBMETHOD", "Comparator": "EQ", "CheckValue": [{"_content": "QUANT"}]}]}, {"OID": "WC.LB.LBTESTCD.HCT.LBCAT.HEMATOLOGY.LBSPEC.BLOOD", "RangeCheck": [{"SoftHard": "Soft", "ItemOID": "IT.LB.LBTESTCD", "Comparator": "EQ", "CheckValue": [{"_content": "HCT"}]}, {"SoftHard": "Soft", "ItemOID": "IT.LB.LBCAT", "Comparator": "EQ", "CheckValue": [{"_content": "HEMATOLOGY"}]}, {"SoftHard": "Soft", "ItemOID": "IT.LB.LBSPEC", "Comparator": "EQ", "CheckValue": [{"_content": "BLOOD"}]}]}, {"OID": "WC.LB.LBTESTCD.HGB.LBCAT.HEMATOLOGY.LBSPEC.BLOOD", "RangeCheck": [{"SoftHard": "Soft", "ItemOID": "IT.LB.LBTESTCD", "Comparator": "EQ", "CheckValue": [{"_content": "HGB"}]}, {"SoftHard": "Soft", "ItemOID": "IT.LB.LBCAT", "Comparator": "EQ", "CheckValue": [{"_content": "HEMATOLOGY"}]}, {"SoftHard": "Soft", "ItemOID": "IT.LB.LBSPEC", "Comparator": "EQ", "CheckValue": [{"_content": "BLOOD"}]}]}, {"OID": "WC.LB.LBTESTCD.LYM.LBCAT.HEMATOLOGY.LBSPEC.BLOOD", "RangeCheck": [{"SoftHard": "Soft", "ItemOID": "IT.LB.LBTESTCD", "Comparator": "EQ", "CheckValue": [{"_content": "LYM"}]}, {"SoftHard": "Soft", "ItemOID": "IT.LB.LBCAT", "Comparator": "EQ", "CheckValue": [{"_content": "HEMATOLOGY"}]}, {"SoftHard": "Soft", "ItemOID": "IT.LB.LBSPEC", "Comparator": "EQ", "CheckValue": [{"_content": "BLOOD"}]}]}, {"OID": "WC.LB.LBTESTCD.OCCBLD.LBCAT.URINALYSIS.LBSPEC.URINE", "RangeCheck": [{"SoftHard": "Soft", "ItemOID": "IT.LB.LBTESTCD", "Comparator": "EQ", "CheckValue": [{"_content": "OCCBLD"}]}, {"SoftHard": "Soft", "ItemOID": "IT.LB.LBCAT", "Comparator": "EQ", "CheckValue": [{"_content": "URINALYSIS"}]}, {"SoftHard": "Soft", "ItemOID": "IT.LB.LBSPEC", "Comparator": "EQ", "CheckValue": [{"_content": "URINE"}]}]}, {"OID": "WC.LB.LBTESTCD.PH.LBCAT.URINALYSIS.LBSPEC.URINE", "RangeCheck": [{"SoftHard": "Soft", "ItemOID": "IT.LB.LBTESTCD", "Comparator": "EQ", "CheckValue": [{"_content": "PH"}]}, {"SoftHard": "Soft", "ItemOID": "IT.LB.LBCAT", "Comparator": "EQ", "CheckValue": [{"_content": "URINALYSIS"}]}, {"SoftHard": "Soft", "ItemOID": "IT.LB.LBSPEC", "Comparator": "EQ", "CheckValue": [{"_content": "URINE"}]}]}, {"OID": "WC.LB.LBTESTCD.VITB12.LBCAT.CHEMISTRY.LBSPEC.SERUM", "RangeCheck": [{"SoftHard": "Soft", "ItemOID": "IT.LB.LBTESTCD", "Comparator": "EQ", "CheckValue": [{"_content": "VITB12"}]}, {"SoftHard": "Soft", "ItemOID": "IT.LB.LBCAT", "Comparator": "EQ", "CheckValue": [{"_content": "CHEMISTRY"}]}, {"SoftHard": "Soft", "ItemOID": "IT.LB.LBSPEC", "Comparator": "EQ", "CheckValue": [{"_content": "SERUM"}]}]}, {"OID": "WC.LB.LBTESTCD.VITB9.LBCAT.CHEMISTRY.LBSPEC.BLOOD", "RangeCheck": [{"SoftHard": "Soft", "ItemOID": "IT.LB.LBTESTCD", "Comparator": "EQ", "CheckValue": [{"_content": "VITB9"}]}, {"SoftHard": "Soft", "ItemOID": "IT.LB.LBCAT", "Comparator": "EQ", "CheckValue": [{"_content": "CHEMISTRY"}]}, {"SoftHard": "Soft", "ItemOID": "IT.LB.LBSPEC", "Comparator": "EQ", "CheckValue": [{"_content": "BLOOD"}]}]}, {"OID": "WC.PE.PETESTCD.PE01", "RangeCheck": [{"SoftHard": "Soft", "ItemOID": "IT.PE.PETESTCD", "Comparator": "EQ", "CheckValue": [{"_content": "PE01"}]}]}, {"OID": "WC.PE.PETESTCD.PE02", "RangeCheck": [{"SoftHard": "Soft", "ItemOID": "IT.PE.PETESTCD", "Comparator": "EQ", "CheckValue": [{"_content": "PE02"}]}]}, {"OID": "WC.PE.PETESTCD.PE03", "RangeCheck": [{"SoftHard": "Soft", "ItemOID": "IT.PE.PETESTCD", "Comparator": "EQ", "CheckValue": [{"_content": "PE03"}]}]}, {"OID": "WC.PE.PETESTCD.PE04", "RangeCheck": [{"SoftHard": "Soft", "ItemOID": "IT.PE.PETESTCD", "Comparator": "EQ", "CheckValue": [{"_content": "PE04"}]}]}, {"OID": "WC.PE.PETESTCD.PE05", "RangeCheck": [{"SoftHard": "Soft", "ItemOID": "IT.PE.PETESTCD", "Comparator": "EQ", "CheckValue": [{"_content": "PE05"}]}]}, {"OID": "WC.PE.PETESTCD.PE06", "RangeCheck": [{"SoftHard": "Soft", "ItemOID": "IT.PE.PETESTCD", "Comparator": "EQ", "CheckValue": [{"_content": "PE06"}]}]}, {"OID": "WC.PE.PETESTCD.PE07", "RangeCheck": [{"SoftHard": "Soft", "ItemOID": "IT.PE.PETESTCD", "Comparator": "EQ", "CheckValue": [{"_content": "PE07"}]}]}, {"OID": "WC.PE.PETESTCD.PE08", "RangeCheck": [{"SoftHard": "Soft", "ItemOID": "IT.PE.PETESTCD", "Comparator": "EQ", "CheckValue": [{"_content": "PE08"}]}]}, {"OID": "WC.PE.PETESTCD.PE09", "RangeCheck": [{"SoftHard": "Soft", "ItemOID": "IT.PE.PETESTCD", "Comparator": "EQ", "CheckValue": [{"_content": "PE09"}]}]}, {"OID": "WC.QS.QSTESTCD.CGIGLOB", "RangeCheck": [{"SoftHard": "Soft", "ItemOID": "IT.QSCS.QSTESTCD", "Comparator": "EQ", "CheckValue": [{"_content": "CGIGLOB"}]}]}, {"OID": "WC.QS.QSTESTCD.CSDD01", "RangeCheck": [{"SoftHard": "Soft", "ItemOID": "IT.QSCS.QSTESTCD", "Comparator": "EQ", "CheckValue": [{"_content": "CSDD01"}]}]}, {"OID": "WC.QS.QSTESTCD.CSDD02", "RangeCheck": [{"SoftHard": "Soft", "ItemOID": "IT.QSCS.QSTESTCD", "Comparator": "EQ", "CheckValue": [{"_content": "CSDD02"}]}]}, {"OID": "WC.QS.QSTESTCD.CSDD03", "RangeCheck": [{"SoftHard": "Soft", "ItemOID": "IT.QSCS.QSTESTCD", "Comparator": "EQ", "CheckValue": [{"_content": "CSDD03"}]}]}, {"OID": "WC.QS.QSTESTCD.CSDD04", "RangeCheck": [{"SoftHard": "Soft", "ItemOID": "IT.QSCS.QSTESTCD", "Comparator": "EQ", "CheckValue": [{"_content": "CSDD04"}]}]}, {"OID": "WC.QS.QSTESTCD.CSDD05", "RangeCheck": [{"SoftHard": "Soft", "ItemOID": "IT.QSCS.QSTESTCD", "Comparator": "EQ", "CheckValue": [{"_content": "CSDD05"}]}]}, {"OID": "WC.QS.QSTESTCD.CSDD06", "RangeCheck": [{"SoftHard": "Soft", "ItemOID": "IT.QSCS.QSTESTCD", "Comparator": "EQ", "CheckValue": [{"_content": "CSDD06"}]}]}, {"OID": "WC.QS.QSTESTCD.CSDD07", "RangeCheck": [{"SoftHard": "Soft", "ItemOID": "IT.QSCS.QSTESTCD", "Comparator": "EQ", "CheckValue": [{"_content": "CSDD07"}]}]}, {"OID": "WC.QS.QSTESTCD.CSDD08", "RangeCheck": [{"SoftHard": "Soft", "ItemOID": "IT.QSCS.QSTESTCD", "Comparator": "EQ", "CheckValue": [{"_content": "CSDD08"}]}]}, {"OID": "WC.QS.QSTESTCD.CSDD09", "RangeCheck": [{"SoftHard": "Soft", "ItemOID": "IT.QSCS.QSTESTCD", "Comparator": "EQ", "CheckValue": [{"_content": "CSDD09"}]}]}, {"OID": "WC.QS.QSTESTCD.CSDD10", "RangeCheck": [{"SoftHard": "Soft", "ItemOID": "IT.QSCS.QSTESTCD", "Comparator": "EQ", "CheckValue": [{"_content": "CSDD10"}]}]}, {"OID": "WC.QS.QSTESTCD.CSDD11", "RangeCheck": [{"SoftHard": "Soft", "ItemOID": "IT.QSCS.QSTESTCD", "Comparator": "EQ", "CheckValue": [{"_content": "CSDD11"}]}]}, {"OID": "WC.QS.QSTESTCD.CSDD12", "RangeCheck": [{"SoftHard": "Soft", "ItemOID": "IT.QSCS.QSTESTCD", "Comparator": "EQ", "CheckValue": [{"_content": "CSDD12"}]}]}, {"OID": "WC.QS.QSTESTCD.CSDD13", "RangeCheck": [{"SoftHard": "Soft", "ItemOID": "IT.QSCS.QSTESTCD", "Comparator": "EQ", "CheckValue": [{"_content": "CSDD13"}]}]}, {"OID": "WC.QS.QSTESTCD.CSDD14", "RangeCheck": [{"SoftHard": "Soft", "ItemOID": "IT.QSCS.QSTESTCD", "Comparator": "EQ", "CheckValue": [{"_content": "CSDD14"}]}]}, {"OID": "WC.QS.QSTESTCD.CSDD15", "RangeCheck": [{"SoftHard": "Soft", "ItemOID": "IT.QSCS.QSTESTCD", "Comparator": "EQ", "CheckValue": [{"_content": "CSDD15"}]}]}, {"OID": "WC.QS.QSTESTCD.CSDD16", "RangeCheck": [{"SoftHard": "Soft", "ItemOID": "IT.QSCS.QSTESTCD", "Comparator": "EQ", "CheckValue": [{"_content": "CSDD16"}]}]}, {"OID": "WC.QS.QSTESTCD.CSDD17", "RangeCheck": [{"SoftHard": "Soft", "ItemOID": "IT.QSCS.QSTESTCD", "Comparator": "EQ", "CheckValue": [{"_content": "CSDD17"}]}]}, {"OID": "WC.QS.QSTESTCD.CSDD18", "RangeCheck": [{"SoftHard": "Soft", "ItemOID": "IT.QSCS.QSTESTCD", "Comparator": "EQ", "CheckValue": [{"_content": "CSDD18"}]}]}, {"OID": "WC.QS.QSTESTCD.CSDD19", "RangeCheck": [{"SoftHard": "Soft", "ItemOID": "IT.QSCS.QSTESTCD", "Comparator": "EQ", "CheckValue": [{"_content": "CSDD19"}]}]}, {"OID": "WC.QS.QSTESTCD.CSDDTOT", "RangeCheck": [{"SoftHard": "Soft", "ItemOID": "IT.QSCS.QSTESTCD", "Comparator": "EQ", "CheckValue": [{"_content": "CSDDTOT"}]}]}, {"OID": "WC.QS.QSTESTCD.MMSEA1", "RangeCheck": [{"SoftHard": "Soft", "ItemOID": "IT.QSCS.QSTESTCD", "Comparator": "EQ", "CheckValue": [{"_content": "MMSEA1"}]}]}, {"OID": "WC.QS.QSTESTCD.MMSEA2", "RangeCheck": [{"SoftHard": "Soft", "ItemOID": "IT.QSMM.QSTESTCD", "Comparator": "EQ", "CheckValue": [{"_content": "MMSEA2"}]}]}, {"OID": "WC.QS.QSTESTCD.MMSEB", "RangeCheck": [{"SoftHard": "Soft", "ItemOID": "IT.QSMM.QSTESTCD", "Comparator": "EQ", "CheckValue": [{"_content": "MMSEB"}]}]}, {"OID": "WC.QS.QSTESTCD.MMSEC", "RangeCheck": [{"SoftHard": "Soft", "ItemOID": "IT.QSMM.QSTESTCD", "Comparator": "EQ", "CheckValue": [{"_content": "MMSEC"}]}]}, {"OID": "WC.QS.QSTESTCD.MMSED", "RangeCheck": [{"SoftHard": "Soft", "ItemOID": "IT.QSMM.QSTESTCD", "Comparator": "EQ", "CheckValue": [{"_content": "MMSED"}]}]}, {"OID": "WC.QS.QSTESTCD.MMSEET", "RangeCheck": [{"SoftHard": "Soft", "ItemOID": "IT.QSMM.QSTESTCD", "Comparator": "EQ", "CheckValue": [{"_content": "MMSEET"}]}]}, {"OID": "WC.QS.QSTESTCD.MMSETOT", "RangeCheck": [{"SoftHard": "Soft", "ItemOID": "IT.QSMM.QSTESTCD", "Comparator": "EQ", "CheckValue": [{"_content": "MMSETOT"}]}]}, {"OID": "WC.SC.SCTESTCD.EDLEVEL", "RangeCheck": [{"SoftHard": "Soft", "ItemOID": "IT.SC.SCTESTCD", "Comparator": "EQ", "CheckValue": [{"_content": "EDLEVEL"}]}]}, {"OID": "WC.SC.SCTESTCD.MARISTAT", "RangeCheck": [{"SoftHard": "Soft", "ItemOID": "IT.SC.SCTESTCD", "Comparator": "EQ", "CheckValue": [{"_content": "MARISTAT"}]}]}, {"OID": "WC.SC.SCTESTCD.SUBJINIT", "RangeCheck": [{"SoftHard": "Soft", "ItemOID": "IT.SC.SCTESTCD", "Comparator": "EQ", "CheckValue": [{"_content": "SUBJINIT"}]}]}, {"OID": "WC.SUPPAE.QNAM.AETRTEM", "RangeCheck": [{"SoftHard": "Soft", "ItemOID": "IT.SUPPAE.QNAM", "Comparator": "EQ", "CheckValue": [{"_content": "AETRTEM"}]}]}, {"OID": "WC.SUPPAE.QNAM.HLGT", "RangeCheck": [{"SoftHard": "Soft", "ItemOID": "IT.SUPPAE.QNAM", "Comparator": "EQ", "CheckValue": [{"_content": "HLGT"}]}]}, {"OID": "WC.SUPPAE.QNAM.HLT", "RangeCheck": [{"SoftHard": "Soft", "ItemOID": "IT.SUPPAE.QNAM", "Comparator": "EQ", "CheckValue": [{"_content": "HLT"}]}]}, {"OID": "WC.SUPPAE.QNAM.LLT", "RangeCheck": [{"SoftHard": "Soft", "ItemOID": "IT.SUPPAE.QNAM", "Comparator": "EQ", "CheckValue": [{"_content": "LLT"}]}]}, {"OID": "WC.SUPPCM.QNAM.ATC4CODE", "RangeCheck": [{"SoftHard": "Soft", "ItemOID": "IT.SUPPCM.QNAM", "Comparator": "EQ", "CheckValue": [{"_content": "ATC4CODE"}]}]}, {"OID": "WC.SUPPCM.QNAM.ATC4TERM", "RangeCheck": [{"SoftHard": "Soft", "ItemOID": "IT.SUPPCM.QNAM", "Comparator": "EQ", "CheckValue": [{"_content": "ATC4TERM"}]}]}, {"OID": "WC.SUPPCM.QNAM.CPREFCD", "RangeCheck": [{"SoftHard": "Soft", "ItemOID": "IT.SUPPCM.QNAM", "Comparator": "EQ", "CheckValue": [{"_content": "CPREFCD"}]}]}, {"OID": "WC.SUPPCM.QNAM.PDDREAS", "RangeCheck": [{"SoftHard": "Soft", "ItemOID": "IT.SUPPCM.QNAM", "Comparator": "EQ", "CheckValue": [{"_content": "PDDREAS"}]}]}, {"OID": "WC.SUPPCM.QNAM.PDRESP", "RangeCheck": [{"SoftHard": "Soft", "ItemOID": "IT.SUPPCM.QNAM", "Comparator": "EQ", "CheckValue": [{"_content": "PDRESP"}]}]}, {"OID": "WC.SUPPDM.QNAM.RACE1", "RangeCheck": [{"SoftHard": "Soft", "ItemOID": "IT.SUPPDM.QNAM", "Comparator": "EQ", "CheckValue": [{"_content": "RACE1"}]}]}, {"OID": "WC.SUPPDM.QNAM.RACE2", "RangeCheck": [{"SoftHard": "Soft", "ItemOID": "IT.SUPPDM.QNAM", "Comparator": "EQ", "CheckValue": [{"_content": "RACE2"}]}]}, {"OID": "WC.SUPPDM.QNAM.RACE3", "RangeCheck": [{"SoftHard": "Soft", "ItemOID": "IT.SUPPDM.QNAM", "Comparator": "EQ", "CheckValue": [{"_content": "RACE3"}]}]}, {"OID": "WC.SUPPDM.QNAM.RACEOTH", "RangeCheck": [{"SoftHard": "Soft", "ItemOID": "IT.SUPPDM.QNAM", "Comparator": "EQ", "CheckValue": [{"_content": "RACEOTH"}]}]}, {"OID": "WC.SUPPDM.QNAM.RAND", "RangeCheck": [{"SoftHard": "Soft", "ItemOID": "IT.SUPPDM.QNAM", "Comparator": "EQ", "CheckValue": [{"_content": "RAND"}]}]}, {"OID": "WC.SUPPDM.QNAM.RANDNO", "RangeCheck": [{"SoftHard": "Soft", "ItemOID": "IT.SUPPDM.QNAM", "Comparator": "EQ", "CheckValue": [{"_content": "RANDNO"}]}]}, {"OID": "WC.SUPPDM.QNAM.SAFETY", "RangeCheck": [{"SoftHard": "Soft", "ItemOID": "IT.SUPPDM.QNAM", "Comparator": "EQ", "CheckValue": [{"_content": "SAFETY"}]}]}, {"OID": "WC.SUPPEG.QNAM.EGCLSIG", "RangeCheck": [{"SoftHard": "Soft", "ItemOID": "IT.SUPPEG.QNAM", "Comparator": "EQ", "CheckValue": [{"_content": "EGCLSIG"}]}]}, {"OID": "WC.SUPPEX.QNAM.SMNO", "RangeCheck": [{"SoftHard": "Soft", "ItemOID": "IT.SUPPEX.QNAM", "Comparator": "EQ", "CheckValue": [{"_content": "SMNO"}]}]}, {"OID": "WC.SUPPLB.QNAM.LBCLSIG", "RangeCheck": [{"SoftHard": "Soft", "ItemOID": "IT.SUPPLB.QNAM", "Comparator": "EQ", "CheckValue": [{"_content": "LBCLSIG"}]}]}, {"OID": "WC.SUPPQS.QNAM.RTRINIT", "RangeCheck": [{"SoftHard": "Soft", "ItemOID": "IT.SUPPQSMM.QNAM", "Comparator": "EQ", "CheckValue": [{"_content": "RTRINIT"}]}]}, {"OID": "WC.SUPPVS.QNAM.VSCLSIG", "RangeCheck": [{"SoftHard": "Soft", "ItemOID": "IT.SUPPVS.QNAM", "Comparator": "EQ", "CheckValue": [{"_content": "VSCLSIG"}]}]}, {"OID": "WC.TS.TSPARMCD.ADDON", "RangeCheck": [{"SoftHard": "Soft", "ItemOID": "IT.TS.TSPARMCD", "Comparator": "EQ", "CheckValue": [{"_content": "ADDON"}]}]}, {"OID": "WC.TS.TSPARMCD.AGEMAX", "RangeCheck": [{"SoftHard": "Soft", "ItemOID": "IT.TS.TSPARMCD", "Comparator": "EQ", "CheckValue": [{"_content": "AGEMAX"}]}]}, {"OID": "WC.TS.TSPARMCD.AGEMIN", "RangeCheck": [{"SoftHard": "Soft", "ItemOID": "IT.TS.TSPARMCD", "Comparator": "EQ", "CheckValue": [{"_content": "AGEMIN"}]}]}, {"OID": "WC.TS.TSPARMCD.AGESPAN", "RangeCheck": [{"SoftHard": "Soft", "ItemOID": "IT.TS.TSPARMCD", "Comparator": "EQ", "CheckValue": [{"_content": "AGESPAN"}]}]}, {"OID": "WC.TS.TSPARMCD.AGEU", "RangeCheck": [{"SoftHard": "Soft", "ItemOID": "IT.TS.TSPARMCD", "Comparator": "EQ", "CheckValue": [{"_content": "AGEU"}]}]}, {"OID": "WC.TS.TSPARMCD.DOSE", "RangeCheck": [{"SoftHard": "Soft", "ItemOID": "IT.TS.TSPARMCD", "Comparator": "EQ", "CheckValue": [{"_content": "DOSE"}]}]}, {"OID": "WC.TS.TSPARMCD.DOSFRQ", "RangeCheck": [{"SoftHard": "Soft", "ItemOID": "IT.TS.TSPARMCD", "Comparator": "EQ", "CheckValue": [{"_content": "DOSFRQ"}]}]}, {"OID": "WC.TS.TSPARMCD.DOSU", "RangeCheck": [{"SoftHard": "Soft", "ItemOID": "IT.TS.TSPARMCD", "Comparator": "EQ", "CheckValue": [{"_content": "DOSU"}]}]}, {"OID": "WC.TS.TSPARMCD.LENGTH", "RangeCheck": [{"SoftHard": "Soft", "ItemOID": "IT.TS.TSPARMCD", "Comparator": "EQ", "CheckValue": [{"_content": "LENGTH"}]}]}, {"OID": "WC.TS.TSPARMCD.OBJPRIM", "RangeCheck": [{"SoftHard": "Soft", "ItemOID": "IT.TS.TSPARMCD", "Comparator": "EQ", "CheckValue": [{"_content": "OBJPRIM"}]}]}, {"OID": "WC.TS.TSPARMCD.OBJSEC", "RangeCheck": [{"SoftHard": "Soft", "ItemOID": "IT.TS.TSPARMCD", "Comparator": "EQ", "CheckValue": [{"_content": "OBJSEC"}]}]}, {"OID": "WC.TS.TSPARMCD.PLANSUB", "RangeCheck": [{"SoftHard": "Soft", "ItemOID": "IT.TS.TSPARMCD", "Comparator": "EQ", "CheckValue": [{"_content": "PLANSUB"}]}]}, {"OID": "WC.TS.TSPARMCD.RANDOM", "RangeCheck": [{"SoftHard": "Soft", "ItemOID": "IT.TS.TSPARMCD", "Comparator": "EQ", "CheckValue": [{"_content": "RANDOM"}]}]}, {"OID": "WC.TS.TSPARMCD.ROUTE", "RangeCheck": [{"SoftHard": "Soft", "ItemOID": "IT.TS.TSPARMCD", "Comparator": "EQ", "CheckValue": [{"_content": "ROUTE"}]}]}, {"OID": "WC.TS.TSPARMCD.SEXPOP", "RangeCheck": [{"SoftHard": "Soft", "ItemOID": "IT.TS.TSPARMCD", "Comparator": "EQ", "CheckValue": [{"_content": "SEXPOP"}]}]}, {"OID": "WC.TS.TSPARMCD.SPONSOR", "RangeCheck": [{"SoftHard": "Soft", "ItemOID": "IT.TS.TSPARMCD", "Comparator": "EQ", "CheckValue": [{"_content": "SPONSOR"}]}]}, {"OID": "WC.TS.TSPARMCD.TBLIND", "RangeCheck": [{"SoftHard": "Soft", "ItemOID": "IT.TS.TSPARMCD", "Comparator": "EQ", "CheckValue": [{"_content": "TBLIND"}]}]}, {"OID": "WC.TS.TSPARMCD.TCNTRL", "RangeCheck": [{"SoftHard": "Soft", "ItemOID": "IT.TS.TSPARMCD", "Comparator": "EQ", "CheckValue": [{"_content": "TCNTRL"}]}]}, {"OID": "WC.TS.TSPARMCD.TINDTP", "RangeCheck": [{"SoftHard": "Soft", "ItemOID": "IT.TS.TSPARMCD", "Comparator": "EQ", "CheckValue": [{"_content": "TINDTP"}]}]}, {"OID": "WC.TS.TSPARMCD.TITLE", "RangeCheck": [{"SoftHard": "Soft", "ItemOID": "IT.TS.TSPARMCD", "Comparator": "EQ", "CheckValue": [{"_content": "TITLE"}]}]}, {"OID": "WC.TS.TSPARMCD.TPHASE", "RangeCheck": [{"SoftHard": "Soft", "ItemOID": "IT.TS.TSPARMCD", "Comparator": "EQ", "CheckValue": [{"_content": "TPHASE"}]}]}, {"OID": "WC.TS.TSPARMCD.TRT", "RangeCheck": [{"SoftHard": "Soft", "ItemOID": "IT.TS.TSPARMCD", "Comparator": "EQ", "CheckValue": [{"_content": "TRT"}]}]}, {"OID": "WC.TS.TSPARMCD.TTYPE", "RangeCheck": [{"SoftHard": "Soft", "ItemOID": "IT.TS.TSPARMCD", "Comparator": "EQ", "CheckValue": [{"_content": "TTYPE"}]}]}, {"OID": "WC.VS.VSTESTCD.DIABP", "RangeCheck": [{"SoftHard": "Soft", "ItemOID": "IT.VS.VSTESTCD", "Comparator": "EQ", "CheckValue": [{"_content": "DIABP"}]}]}, {"OID": "WC.VS.VSTESTCD.FRMSIZE", "RangeCheck": [{"SoftHard": "Soft", "ItemOID": "IT.VS.VSTESTCD", "Comparator": "EQ", "CheckValue": [{"_content": "FRMSIZE"}]}]}, {"OID": "WC.VS.VSTESTCD.HEIGHT", "RangeCheck": [{"SoftHard": "Soft", "ItemOID": "IT.VS.VSTESTCD", "Comparator": "EQ", "CheckValue": [{"_content": "HEIGHT"}]}]}, {"OID": "WC.VS.VSTESTCD.PULSE", "RangeCheck": [{"SoftHard": "Soft", "ItemOID": "IT.VS.VSTESTCD", "Comparator": "EQ", "CheckValue": [{"_content": "PULSE"}]}]}, {"OID": "WC.VS.VSTESTCD.SYSBP", "RangeCheck": [{"SoftHard": "Soft", "ItemOID": "IT.VS.VSTESTCD", "Comparator": "EQ", "CheckValue": [{"_content": "SYSBP"}]}]}, {"OID": "WC.VS.VSTESTCD.WEIGHT", "RangeCheck": [{"SoftHard": "Soft", "ItemOID": "IT.VS.VSTESTCD", "Comparator": "EQ", "CheckValue": [{"_content": "WEIGHT"}]}]}, {"OID": "WC.VS.VSTESTCD.HEIGHT.[DM].COUNTRY.CMETRIC", "CommentOID": "COM.SUBJECTDATA-JOIN-DM", "RangeCheck": [{"SoftHard": "Soft", "ItemOID": "IT.VS.VSTESTCD", "Comparator": "EQ", "CheckValue": [{"_content": "HEIGHT"}]}, {"SoftHard": "Soft", "ItemOID": "IT.DM.COUNTRY", "Comparator": "IN", "CheckValue": [{"_content": "CAN,MEX"}]}]}, {"OID": "WC.VS.VSTESTCD.HEIGHT.[DM].COUNTRY.CNMETRIC", "CommentOID": "COM.SUBJECTDATA-JOIN-DM", "RangeCheck": [{"SoftHard": "Soft", "ItemOID": "IT.VS.VSTESTCD", "Comparator": "EQ", "CheckValue": [{"_content": "HEIGHT"}]}, {"SoftHard": "Soft", "ItemOID": "IT.DM.COUNTRY", "Comparator": "EQ", "CheckValue": [{"_content": "USA"}]}]}, {"OID": "WC.VS.VSTESTCD.WEIGHT.[DM].COUNTRY.CMETRIC", "CommentOID": "COM.SUBJECTDATA-JOIN-DM", "RangeCheck": [{"SoftHard": "Soft", "ItemOID": "IT.VS.VSTESTCD", "Comparator": "EQ", "CheckValue": [{"_content": "WEIGHT"}]}, {"SoftHard": "Soft", "ItemOID": "IT.DM.COUNTRY", "Comparator": "IN", "CheckValue": [{"_content": "CAN,MEX"}]}]}, {"OID": "WC.VS.VSTESTCD.WEIGHT.[DM].COUNTRY.CNMETRIC", "CommentOID": "COM.SUBJECTDATA-JOIN-DM", "RangeCheck": [{"SoftHard": "Soft", "ItemOID": "IT.VS.VSTESTCD", "Comparator": "EQ", "CheckValue": [{"_content": "WEIGHT"}]}, {"SoftHard": "Soft", "ItemOID": "IT.DM.COUNTRY", "Comparator": "EQ", "CheckValue": [{"_content": "USA"}]}]}], "ItemGroupDef": [{"OID": "IG.AE", "Name": "AE", "Repeating": "Yes", "Domain": "AE", "SASDatasetName": "AE", "IsReferenceData": "No", "Purpose": "Tabulation", "Structure": "One record per adverse event per subject", "ArchiveLocationID": "LF.AE", "CommentOID": "COM.STD1", "StandardOID": "STD.1", "Description": {"TranslatedText": [{"lang": "en", "_content": "Adverse Events"}]}, "ItemRef": [{"ItemOID": "IT.AE.STUDYID", "Mandatory": "Yes", "OrderNumber": 1, "KeySequence": 1}, {"ItemOID": "IT.AE.DOMAIN", "Mandatory": "Yes", "OrderNumber": 2}, {"ItemOID": "IT.AE.USUBJID", "Mandatory": "Yes", "MethodOID": "MT.USUBJID", "OrderNumber": 3, "KeySequence": 2}, {"ItemOID": "IT.AE.AESEQ", "Mandatory": "Yes", "MethodOID": "MT.SEQ", "OrderNumber": 4}, {"ItemOID": "IT.AE.AESPID", "Mandatory": "No", "OrderNumber": 5}, {"ItemOID": "IT.AE.AETERM", "Mandatory": "Yes", "OrderNumber": 6}, {"ItemOID": "IT.AE.AEMODIFY", "Mandatory": "No", "OrderNumber": 7}, {"ItemOID": "IT.AE.AEDECOD", "Mandatory": "Yes", "OrderNumber": 8, "KeySequence": 3}, {"ItemOID": "IT.AE.AEBODSYS", "Mandatory": "No", "OrderNumber": 9}, {"ItemOID": "IT.AE.AESEV", "Mandatory": "Yes", "OrderNumber": 10}, {"ItemOID": "IT.AE.AESER", "Mandatory": "Yes", "OrderNumber": 11}, {"ItemOID": "IT.AE.AEACN", "Mandatory": "Yes", "OrderNumber": 12}, {"ItemOID": "IT.AE.AEREL", "Mandatory": "Yes", "OrderNumber": 13}, {"ItemOID": "IT.AE.AESTDTC", "Mandatory": "No", "OrderNumber": 14, "KeySequence": 4}, {"ItemOID": "IT.AE.AEENDTC", "Mandatory": "No", "OrderNumber": 15}, {"ItemOID": "IT.AE.AESTDY", "Mandatory": "No", "MethodOID": "MT.AESTDY", "OrderNumber": 16}, {"ItemOID": "IT.AE.AEENDY", "Mandatory": "No", "MethodOID": "MT.AEENDY", "OrderNumber": 17}, {"ItemOID": "IT.AE.AEENRF", "Mandatory": "No", "OrderNumber": 18}], "Class": {"Name": "EVENTS"}, "leaf": {"ID": "LF.AE", "href": "ae.xpt", "title": {"_content": "ae.xpt"}}}, {"OID": "IG.CM", "Name": "CM", "Repeating": "Yes", "Domain": "CM", "SASDatasetName": "CM", "IsReferenceData": "No", "Purpose": "Tabulation", "Structure": "One record per recorded medication occurrence or constant-dosing interval per subject", "ArchiveLocationID": "LF.CM", "CommentOID": "COM.STD1", "StandardOID": "STD.1", "Description": {"TranslatedText": [{"lang": "en", "_content": "Concomitant Medications"}]}, "ItemRef": [{"ItemOID": "IT.CM.STUDYID", "Mandatory": "Yes", "OrderNumber": 1, "KeySequence": 1}, {"ItemOID": "IT.CM.DOMAIN", "Mandatory": "Yes", "OrderNumber": 2}, {"ItemOID": "IT.CM.USUBJID", "Mandatory": "Yes", "MethodOID": "MT.USUBJID", "OrderNumber": 3, "KeySequence": 2}, {"ItemOID": "IT.CM.CMSEQ", "Mandatory": "Yes", "MethodOID": "MT.SEQ", "OrderNumber": 4}, {"ItemOID": "IT.CM.CMTRT", "Mandatory": "Yes", "OrderNumber": 5, "KeySequence": 6}, {"ItemOID": "IT.CM.CMMODIFY", "Mandatory": "No", "OrderNumber": 6}, {"ItemOID": "IT.CM.CMDECOD", "Mandatory": "No", "OrderNumber": 7}, {"ItemOID": "IT.CM.CMCAT", "Mandatory": "No", "OrderNumber": 8, "KeySequence": 5}, {"ItemOID": "IT.CM.CMINDC", "Mandatory": "No", "OrderNumber": 9, "KeySequence": 9}, {"ItemOID": "IT.CM.CMCLAS", "Mandatory": "No", "OrderNumber": 10}, {"ItemOID": "IT.CM.CMCLASCD", "Mandatory": "No", "OrderNumber": 11}, {"ItemOID": "IT.CM.CMDOSTXT", "Mandatory": "No", "OrderNumber": 12, "KeySequence": 7}, {"ItemOID": "IT.CM.CMDOSU", "Mandatory": "No", "OrderNumber": 13, "KeySequence": 8}, {"ItemOID": "IT.CM.CMDOSFRQ", "Mandatory": "No", "OrderNumber": 14, "KeySequence": 10}, {"ItemOID": "IT.CM.CMROUTE", "Mandatory": "No", "OrderNumber": 15}, {"ItemOID": "IT.CM.CMSTDTC", "Mandatory": "No", "OrderNumber": 16, "KeySequence": 3}, {"ItemOID": "IT.CM.CMENDTC", "Mandatory": "No", "OrderNumber": 17, "KeySequence": 4}, {"ItemOID": "IT.CM.CMSTDY", "Mandatory": "No", "MethodOID": "MT.CMSTDY", "OrderNumber": 18}, {"ItemOID": "IT.CM.CMENDY", "Mandatory": "No", "MethodOID": "MT.CMENDY", "OrderNumber": 19}, {"ItemOID": "IT.CM.CMENRF", "Mandatory": "No", "OrderNumber": 20}], "Class": {"Name": "INTERVENTIONS"}, "leaf": {"ID": "LF.CM", "href": "cm.xpt", "title": {"_content": "cm.xpt"}}}, {"OID": "IG.DA", "Name": "DA", "Repeating": "Yes", "Domain": "DA", "SASDatasetName": "DA", "IsReferenceData": "No", "Purpose": "Tabulation", "Structure": "One record per drug accountability finding per subject", "ArchiveLocationID": "LF.DA", "CommentOID": "COM.STD1", "StandardOID": "STD.1", "Description": {"TranslatedText": [{"lang": "en", "_content": "Drug Accountability"}]}, "ItemRef": [{"ItemOID": "IT.DA.STUDYID", "Mandatory": "Yes", "OrderNumber": 1, "KeySequence": 1}, {"ItemOID": "IT.DA.DOMAIN", "Mandatory": "Yes", "OrderNumber": 2}, {"ItemOID": "IT.DA.USUBJID", "Mandatory": "Yes", "MethodOID": "MT.USUBJID", "OrderNumber": 3, "KeySequence": 2}, {"ItemOID": "IT.DA.DASEQ", "Mandatory": "Yes", "MethodOID": "MT.SEQ", "OrderNumber": 4}, {"ItemOID": "IT.DA.DATESTCD", "Mandatory": "Yes", "OrderNumber": 5, "KeySequence": 3}, {"ItemOID": "IT.DA.DATEST", "Mandatory": "Yes", "OrderNumber": 6}, {"ItemOID": "IT.DA.DAORRES", "Mandatory": "No", "OrderNumber": 7}, {"ItemOID": "IT.DA.DAORRESU", "Mandatory": "No", "OrderNumber": 8}, {"ItemOID": "IT.DA.DASTRESC", "Mandatory": "No", "MethodOID": "MT.DASTRESC", "OrderNumber": 9}, {"ItemOID": "IT.DA.DASTRESN", "Mandatory": "No", "MethodOID": "MT.DASTRESN", "OrderNumber": 10}, {"ItemOID": "IT.DA.DASTRESU", "Mandatory": "No", "MethodOID": "MT.DASTRESU", "OrderNumber": 11}, {"ItemOID": "IT.DA.VISITNUM", "Mandatory": "No", "MethodOID": "MT.DA.VISITNUM", "OrderNumber": 12}, {"ItemOID": "IT.DA.VISIT", "Mandatory": "No", "OrderNumber": 13}, {"ItemOID": "IT.DA.VISITDY", "Mandatory": "No", "OrderNumber": 14}, {"ItemOID": "IT.DA.DADTC", "Mandatory": "No", "OrderNumber": 15, "KeySequence": 4}, {"ItemOID": "IT.DA.DADY", "Mandatory": "No", "MethodOID": "MT.DADY", "OrderNumber": 16}], "Class": {"Name": "FINDINGS"}, "leaf": {"ID": "LF.DA", "href": "da.xpt", "title": {"_content": "da.xpt"}}}, {"OID": "IG.DM", "Name": "DM", "Repeating": "No", "Domain": "DM", "SASDatasetName": "DM", "IsReferenceData": "No", "Purpose": "Tabulation", "Structure": "One record per subject", "ArchiveLocationID": "LF.DM", "CommentOID": "COM.DOMAIN.DM", "StandardOID": "STD.1", "Description": {"TranslatedText": [{"lang": "en", "_content": "Demographics"}]}, "ItemRef": [{"ItemOID": "IT.DM.STUDYID", "Mandatory": "Yes", "OrderNumber": 1, "KeySequence": 1}, {"ItemOID": "IT.DM.DOMAIN", "Mandatory": "Yes", "OrderNumber": 2}, {"ItemOID": "IT.DM.USUBJID", "Mandatory": "Yes", "MethodOID": "MT.USUBJID", "OrderNumber": 3, "KeySequence": 2}, {"ItemOID": "IT.DM.SUBJID", "Mandatory": "Yes", "OrderNumber": 4}, {"ItemOID": "IT.DM.RFSTDTC", "Mandatory": "No", "MethodOID": "MT.RFSTDTC", "OrderNumber": 5}, {"ItemOID": "IT.DM.RFENDTC", "Mandatory": "No", "MethodOID": "MT.RFENDTC", "OrderNumber": 6}, {"ItemOID": "IT.DM.SITEID", "Mandatory": "Yes", "OrderNumber": 7}, {"ItemOID": "IT.DM.BRTHDTC", "Mandatory": "No", "OrderNumber": 8}, {"ItemOID": "IT.DM.AGE", "Mandatory": "Yes", "MethodOID": "MT.AGE", "OrderNumber": 9}, {"ItemOID": "IT.DM.AGEU", "Mandatory": "No", "OrderNumber": 10}, {"ItemOID": "IT.DM.SEX", "Mandatory": "Yes", "OrderNumber": 11}, {"ItemOID": "IT.DM.RACE", "Mandatory": "No", "OrderNumber": 12}, {"ItemOID": "IT.DM.ETHNIC", "Mandatory": "Yes", "OrderNumber": 13}, {"ItemOID": "IT.DM.ARMCD", "Mandatory": "Yes", "OrderNumber": 14}, {"ItemOID": "IT.DM.ARM", "Mandatory": "Yes", "OrderNumber": 15}, {"ItemOID": "IT.DM.COUNTRY", "Mandatory": "Yes", "OrderNumber": 16}], "Class": {"Name": "SPECIAL PURPOSE"}, "leaf": {"ID": "LF.DM", "href": "dm.xpt", "title": {"_content": "dm.xpt"}}}, {"OID": "IG.DS", "Name": "DS", "Repeating": "Yes", "Domain": "DS", "SASDatasetName": "DS", "IsReferenceData": "No", "Purpose": "Tabulation", "Structure": "One record per disposition status or protocol milestone per subject", "ArchiveLocationID": "LF.DS", "CommentOID": "COM.STD1", "StandardOID": "STD.1", "Description": {"TranslatedText": [{"lang": "en", "_content": "Disposition"}]}, "ItemRef": [{"ItemOID": "IT.DS.STUDYID", "Mandatory": "Yes", "OrderNumber": 1, "KeySequence": 1}, {"ItemOID": "IT.DS.DOMAIN", "Mandatory": "Yes", "OrderNumber": 2}, {"ItemOID": "IT.DS.USUBJID", "Mandatory": "Yes", "MethodOID": "MT.USUBJID", "OrderNumber": 3, "KeySequence": 2}, {"ItemOID": "IT.DS.DSSEQ", "Mandatory": "Yes", "MethodOID": "MT.SEQ", "OrderNumber": 4}, {"ItemOID": "IT.DS.DSTERM", "Mandatory": "Yes", "OrderNumber": 5}, {"ItemOID": "IT.DS.DSDECOD", "Mandatory": "Yes", "OrderNumber": 6, "KeySequence": 6}, {"ItemOID": "IT.DS.DSCAT", "Mandatory": "No", "OrderNumber": 7, "KeySequence": 5}, {"ItemOID": "IT.DS.EPOCH", "Mandatory": "No", "OrderNumber": 8}, {"ItemOID": "IT.DS.DSSTDTC", "Mandatory": "No", "OrderNumber": 9, "KeySequence": 4}, {"ItemOID": "IT.DS.DSSTDY", "Mandatory": "No", "MethodOID": "MT.DSSTDY", "OrderNumber": 10, "KeySequence": 3}], "Class": {"Name": "EVENTS"}, "leaf": {"ID": "LF.DS", "href": "ds.xpt", "title": {"_content": "ds.xpt"}}}, {"OID": "IG.EG", "Name": "EG", "Repeating": "Yes", "Domain": "EG", "SASDatasetName": "EG", "IsReferenceData": "No", "Purpose": "Tabulation", "Structure": "One record per ECG observation per visit per subject", "ArchiveLocationID": "LF.EG", "CommentOID": "COM.STD1", "StandardOID": "STD.1", "Description": {"TranslatedText": [{"lang": "en", "_content": "ECG Test Results"}]}, "ItemRef": [{"ItemOID": "IT.EG.STUDYID", "Mandatory": "Yes", "OrderNumber": 1, "KeySequence": 1}, {"ItemOID": "IT.EG.DOMAIN", "Mandatory": "Yes", "OrderNumber": 2}, {"ItemOID": "IT.EG.USUBJID", "Mandatory": "Yes", "MethodOID": "MT.USUBJID", "OrderNumber": 3, "KeySequence": 2}, {"ItemOID": "IT.EG.EGSEQ", "Mandatory": "Yes", "MethodOID": "MT.SEQ", "OrderNumber": 4}, {"ItemOID": "IT.EG.EGSPID", "Mandatory": "No", "OrderNumber": 5}, {"ItemOID": "IT.EG.EGTESTCD", "Mandatory": "Yes", "OrderNumber": 6, "KeySequence": 3}, {"ItemOID": "IT.EG.EGTEST", "Mandatory": "Yes", "OrderNumber": 7}, {"ItemOID": "IT.EG.EGPOS", "Mandatory": "No", "OrderNumber": 8}, {"ItemOID": "IT.EG.EGORRES", "Mandatory": "No", "OrderNumber": 9}, {"ItemOID": "IT.EG.EGORRESU", "Mandatory": "No", "OrderNumber": 10}, {"ItemOID": "IT.EG.EGSTRESC", "Mandatory": "No", "MethodOID": "MT.EGSTRESC", "OrderNumber": 11}, {"ItemOID": "IT.EG.EGSTRESN", "Mandatory": "No", "MethodOID": "MT.EGSTRESN", "OrderNumber": 12}, {"ItemOID": "IT.EG.EGSTRESU", "Mandatory": "No", "OrderNumber": 13}, {"ItemOID": "IT.EG.EGBLFL", "Mandatory": "No", "MethodOID": "MT.EGBLFL", "OrderNumber": 14}, {"ItemOID": "IT.EG.EGDRVFL", "Mandatory": "No", "MethodOID": "MT.EGDRVFL", "OrderNumber": 15}, {"ItemOID": "IT.EG.EGEVAL", "Mandatory": "No", "OrderNumber": 16}, {"ItemOID": "IT.EG.VISITNUM", "Mandatory": "No", "OrderNumber": 17, "KeySequence": 5}, {"ItemOID": "IT.EG.VISIT", "Mandatory": "No", "OrderNumber": 18}, {"ItemOID": "IT.EG.VISITDY", "Mandatory": "No", "OrderNumber": 19}, {"ItemOID": "IT.EG.EGDTC", "Mandatory": "No", "OrderNumber": 20, "KeySequence": 4}, {"ItemOID": "IT.EG.EGDY", "Mandatory": "No", "MethodOID": "MT.EGDY", "OrderNumber": 21}], "Class": {"Name": "FINDINGS"}, "leaf": {"ID": "LF.EG", "href": "eg.xpt", "title": {"_content": "eg.xpt"}}}, {"OID": "IG.EX", "Name": "EX", "Repeating": "Yes", "Domain": "EX", "SASDatasetName": "EX", "IsReferenceData": "No", "Purpose": "Tabulation", "Structure": "One record per constant dosing interval per subject", "ArchiveLocationID": "LF.EX", "CommentOID": "COM.STD1", "StandardOID": "STD.1", "Description": {"TranslatedText": [{"lang": "en", "_content": "Exposure"}]}, "ItemRef": [{"ItemOID": "IT.EX.STUDYID", "Mandatory": "Yes", "OrderNumber": 1, "KeySequence": 1}, {"ItemOID": "IT.EX.DOMAIN", "Mandatory": "Yes", "OrderNumber": 2}, {"ItemOID": "IT.EX.USUBJID", "Mandatory": "Yes", "MethodOID": "MT.USUBJID", "OrderNumber": 3, "KeySequence": 2}, {"ItemOID": "IT.EX.EXSEQ", "Mandatory": "Yes", "MethodOID": "MT.SEQ", "OrderNumber": 4}, {"ItemOID": "IT.EX.EXTRT", "Mandatory": "Yes", "MethodOID": "MT.EXTRT", "OrderNumber": 5, "KeySequence": 5}, {"ItemOID": "IT.EX.EXDOSE", "Mandatory": "No", "MethodOID": "MT.EXDOSE", "OrderNumber": 6, "KeySequence": 6}, {"ItemOID": "IT.EX.EXDOSU", "Mandatory": "No", "MethodOID": "MT.EXDOSU", "OrderNumber": 7}, {"ItemOID": "IT.EX.EXDOSFRM", "Mandatory": "No", "OrderNumber": 8}, {"ItemOID": "IT.EX.EXSTDTC", "Mandatory": "No", "OrderNumber": 9, "KeySequence": 3}, {"ItemOID": "IT.EX.EXENDTC", "Mandatory": "No", "OrderNumber": 10, "KeySequence": 4}, {"ItemOID": "IT.EX.EXSTDY", "Mandatory": "No", "MethodOID": "MT.EXSTDY", "OrderNumber": 11}, {"ItemOID": "IT.EX.EXENDY", "Mandatory": "No", "MethodOID": "MT.EXENDY", "OrderNumber": 12}], "Class": {"Name": "INTERVENTIONS"}, "leaf": {"ID": "LF.EX", "href": "ex.xpt", "title": {"_content": "ex.xpt"}}}, {"OID": "IG.IE", "Name": "IE", "Repeating": "Yes", "Domain": "IE", "SASDatasetName": "IE", "IsReferenceData": "No", "Purpose": "Tabulation", "Structure": "One record per inclusion/exclusion criterion not met per subject", "ArchiveLocationID": "LF.IE", "CommentOID": "COM.STD1", "StandardOID": "STD.1", "Description": {"TranslatedText": [{"lang": "en", "_content": "Inclusion/Exclusion Criteria Not Met"}]}, "ItemRef": [{"ItemOID": "IT.IE.STUDYID", "Mandatory": "Yes", "OrderNumber": 1, "KeySequence": 1}, {"ItemOID": "IT.IE.DOMAIN", "Mandatory": "Yes", "OrderNumber": 2}, {"ItemOID": "IT.IE.USUBJID", "Mandatory": "Yes", "MethodOID": "MT.USUBJID", "OrderNumber": 3, "KeySequence": 2}, {"ItemOID": "IT.IE.IESEQ", "Mandatory": "Yes", "MethodOID": "MT.SEQ", "OrderNumber": 4}, {"ItemOID": "IT.IE.IETESTCD", "Mandatory": "Yes", "OrderNumber": 5, "KeySequence": 3}, {"ItemOID": "IT.IE.IETEST", "Mandatory": "Yes", "OrderNumber": 6}, {"ItemOID": "IT.IE.IECAT", "Mandatory": "Yes", "OrderNumber": 7}, {"ItemOID": "IT.IE.IEORRES", "Mandatory": "Yes", "OrderNumber": 8}, {"ItemOID": "IT.IE.IESTRESC", "Mandatory": "Yes", "MethodOID": "MT.IESTRESC", "OrderNumber": 9}, {"ItemOID": "IT.IE.VISITNUM", "Mandatory": "No", "OrderNumber": 10}, {"ItemOID": "IT.IE.VISIT", "Mandatory": "No", "OrderNumber": 11}, {"ItemOID": "IT.IE.IEDTC", "Mandatory": "No", "OrderNumber": 12}], "Class": {"Name": "FINDINGS"}, "leaf": {"ID": "LF.IE", "href": "ie.xpt", "title": {"_content": "ie.xpt"}}}, {"OID": "IG.LB", "Name": "LB", "Repeating": "Yes", "Domain": "LB", "SASDatasetName": "LB", "IsReferenceData": "No", "Purpose": "Tabulation", "Structure": "One record per analyte per visit per subject", "ArchiveLocationID": "LF.LB", "CommentOID": "COM.STD1", "StandardOID": "STD.1", "Description": {"TranslatedText": [{"lang": "en", "_content": "Laboratory Tests Results"}]}, "ItemRef": [{"ItemOID": "IT.LB.STUDYID", "Mandatory": "Yes", "OrderNumber": 1, "KeySequence": 1}, {"ItemOID": "IT.LB.DOMAIN", "Mandatory": "Yes", "OrderNumber": 2}, {"ItemOID": "IT.LB.USUBJID", "Mandatory": "Yes", "MethodOID": "MT.USUBJID", "OrderNumber": 3, "KeySequence": 2}, {"ItemOID": "IT.LB.LBSEQ", "Mandatory": "Yes", "MethodOID": "MT.SEQ", "OrderNumber": 4}, {"ItemOID": "IT.LB.LBREFID", "Mandatory": "No", "OrderNumber": 5}, {"ItemOID": "IT.LB.LBTESTCD", "Mandatory": "Yes", "OrderNumber": 6, "KeySequence": 5}, {"ItemOID": "IT.LB.LBTEST", "Mandatory": "Yes", "OrderNumber": 7}, {"ItemOID": "IT.LB.LBCAT", "Mandatory": "No", "OrderNumber": 8, "KeySequence": 3}, {"ItemOID": "IT.LB.LBORRES", "Mandatory": "No", "OrderNumber": 9}, {"ItemOID": "IT.LB.LBORRESU", "Mandatory": "No", "OrderNumber": 10}, {"ItemOID": "IT.LB.LBORNRLO", "Mandatory": "No", "OrderNumber": 11}, {"ItemOID": "IT.LB.LBORNRHI", "Mandatory": "No", "OrderNumber": 12}, {"ItemOID": "IT.LB.LBSTRESC", "Mandatory": "No", "OrderNumber": 13}, {"ItemOID": "IT.LB.LBSTRESN", "Mandatory": "No", "OrderNumber": 14}, {"ItemOID": "IT.LB.LBSTRESU", "Mandatory": "No", "OrderNumber": 15}, {"ItemOID": "IT.LB.LBSTNRLO", "Mandatory": "No", "OrderNumber": 16}, {"ItemOID": "IT.LB.LBSTNRHI", "Mandatory": "No", "OrderNumber": 17}, {"ItemOID": "IT.LB.LBSTNRC", "Mandatory": "No", "OrderNumber": 18}, {"ItemOID": "IT.LB.LBNRIND", "Mandatory": "No", "MethodOID": "MT.LBNRIND", "OrderNumber": 19}, {"ItemOID": "IT.LB.LBSPEC", "Mandatory": "No", "OrderNumber": 20}, {"ItemOID": "IT.LB.LBMETHOD", "Mandatory": "No", "OrderNumber": 21, "KeySequence": 4}, {"ItemOID": "IT.LB.LBBLFL", "Mandatory": "No", "MethodOID": "MT.LBBLFL", "OrderNumber": 22}, {"ItemOID": "IT.LB.LBFAST", "Mandatory": "No", "OrderNumber": 23}, {"ItemOID": "IT.LB.VISITNUM", "Mandatory": "No", "OrderNumber": 24, "KeySequence": 7}, {"ItemOID": "IT.LB.VISIT", "Mandatory": "No", "OrderNumber": 25}, {"ItemOID": "IT.LB.VISITDY", "Mandatory": "No", "OrderNumber": 26}, {"ItemOID": "IT.LB.LBDTC", "Mandatory": "No", "OrderNumber": 27, "KeySequence": 6}, {"ItemOID": "IT.LB.LBDY", "Mandatory": "No", "MethodOID": "MT.LBDY", "OrderNumber": 28}], "Class": {"Name": "FINDINGS"}, "leaf": {"ID": "LF.LB", "href": "lb.xpt", "title": {"_content": "lb.xpt"}}}, {"OID": "IG.MH", "Name": "MH", "Repeating": "Yes", "Domain": "MH", "SASDatasetName": "MH", "IsReferenceData": "No", "Purpose": "Tabulation", "Structure": "One record per medical history event per subject", "ArchiveLocationID": "LF.MH", "CommentOID": "COM.STD1", "StandardOID": "STD.1", "Description": {"TranslatedText": [{"lang": "en", "_content": "Medical History"}]}, "ItemRef": [{"ItemOID": "IT.MH.STUDYID", "Mandatory": "Yes", "OrderNumber": 1, "KeySequence": 1}, {"ItemOID": "IT.MH.DOMAIN", "Mandatory": "Yes", "OrderNumber": 2}, {"ItemOID": "IT.MH.USUBJID", "Mandatory": "Yes", "MethodOID": "MT.USUBJID", "OrderNumber": 3, "KeySequence": 2}, {"ItemOID": "IT.MH.MHSEQ", "Mandatory": "Yes", "MethodOID": "MT.SEQ", "OrderNumber": 4}, {"ItemOID": "IT.MH.MHTERM", "Mandatory": "Yes", "OrderNumber": 5, "KeySequence": 4}, {"ItemOID": "IT.MH.MHCAT", "Mandatory": "No", "OrderNumber": 6, "KeySequence": 3}, {"ItemOID": "IT.MH.MHPRESP", "Mandatory": "No", "OrderNumber": 7}, {"ItemOID": "IT.MH.MHOCCUR", "Mandatory": "No", "OrderNumber": 8}, {"ItemOID": "IT.MH.MHBODSYS", "Mandatory": "No", "OrderNumber": 9}, {"ItemOID": "IT.MH.MHDTC", "Mandatory": "No", "OrderNumber": 10, "KeySequence": 5}, {"ItemOID": "IT.MH.MHSTDTC", "Mandatory": "No", "OrderNumber": 11, "KeySequence": 6}, {"ItemOID": "IT.MH.MHENRF", "Mandatory": "No", "OrderNumber": 12}], "Class": {"Name": "EVENTS"}, "leaf": {"ID": "LF.MH", "href": "mh.xpt", "title": {"_content": "mh.xpt"}}}, {"OID": "IG.PE", "Name": "PE", "Repeating": "Yes", "Domain": "PE", "SASDatasetName": "PE", "IsReferenceData": "No", "Purpose": "Tabulation", "Structure": "One record per body system or abnormality per visit per subject", "ArchiveLocationID": "LF.PE", "CommentOID": "COM.STD1", "StandardOID": "STD.1", "Description": {"TranslatedText": [{"lang": "en", "_content": "Physical Examination"}]}, "ItemRef": [{"ItemOID": "IT.PE.STUDYID", "Mandatory": "Yes", "OrderNumber": 1, "KeySequence": 1}, {"ItemOID": "IT.PE.DOMAIN", "Mandatory": "Yes", "OrderNumber": 2}, {"ItemOID": "IT.PE.USUBJID", "Mandatory": "Yes", "MethodOID": "MT.USUBJID", "OrderNumber": 3, "KeySequence": 2}, {"ItemOID": "IT.PE.PESEQ", "Mandatory": "Yes", "MethodOID": "MT.SEQ", "OrderNumber": 4}, {"ItemOID": "IT.PE.PETESTCD", "Mandatory": "Yes", "OrderNumber": 5, "KeySequence": 3}, {"ItemOID": "IT.PE.PETEST", "Mandatory": "Yes", "OrderNumber": 6}, {"ItemOID": "IT.PE.PEORRES", "Mandatory": "No", "OrderNumber": 7}, {"ItemOID": "IT.PE.PESTRESC", "Mandatory": "No", "MethodOID": "MT.PESTRESC", "OrderNumber": 8}, {"ItemOID": "IT.PE.VISITNUM", "Mandatory": "No", "OrderNumber": 9, "KeySequence": 5}, {"ItemOID": "IT.PE.VISIT", "Mandatory": "No", "OrderNumber": 10}, {"ItemOID": "IT.PE.VISITDY", "Mandatory": "No", "OrderNumber": 11}, {"ItemOID": "IT.PE.PEDTC", "Mandatory": "No", "OrderNumber": 12, "KeySequence": 4}, {"ItemOID": "IT.PE.PEDY", "Mandatory": "No", "MethodOID": "MT.PEDY", "OrderNumber": 13}], "Class": {"Name": "FINDINGS"}, "leaf": {"ID": "LF.PE", "href": "pe.xpt", "title": {"_content": "pe.xpt"}}}, {"OID": "IG.QSCG", "Name": "QSCG", "Repeating": "Yes", "Domain": "QSCG", "SASDatasetName": "QSCG", "IsReferenceData": "No", "Purpose": "Tabulation", "Structure": "One record per questionnaire per question per visit per subject", "ArchiveLocationID": "LF.QSCG", "CommentOID": "COM.DOMAIN.QS", "StandardOID": "STD.1", "Description": {"TranslatedText": [{"lang": "en", "_content": "Questionnaire-QSCG"}]}, "ItemRef": [{"ItemOID": "IT.QSCG.STUDYID", "Mandatory": "Yes", "OrderNumber": 1, "KeySequence": 1}, {"ItemOID": "IT.QSCG.DOMAIN", "Mandatory": "Yes", "OrderNumber": 2}, {"ItemOID": "IT.QSCG.USUBJID", "Mandatory": "Yes", "MethodOID": "MT.USUBJID", "OrderNumber": 3, "KeySequence": 2}, {"ItemOID": "IT.QSCG.QSSEQ", "Mandatory": "Yes", "MethodOID": "MT.SEQ", "OrderNumber": 4}, {"ItemOID": "IT.QSCG.QSTESTCD", "Mandatory": "Yes", "OrderNumber": 5, "KeySequence": 4}, {"ItemOID": "IT.QSCG.QSTEST", "Mandatory": "Yes", "OrderNumber": 6}, {"ItemOID": "IT.QSCG.QSCAT", "Mandatory": "Yes", "OrderNumber": 7, "KeySequence": 3}, {"ItemOID": "IT.QSCG.QSORRES", "Mandatory": "No", "OrderNumber": 9}, {"ItemOID": "IT.QSCG.QSSTRESC", "Mandatory": "No", "MethodOID": "MT.QSSTRESC", "OrderNumber": 10}, {"ItemOID": "IT.QSCG.QSSTRESN", "Mandatory": "No", "MethodOID": "MT.QSSTRESN", "OrderNumber": 11}, {"ItemOID": "IT.QSCG.VISITNUM", "Mandatory": "No", "OrderNumber": 13, "KeySequence": 6}, {"ItemOID": "IT.QSCG.VISIT", "Mandatory": "No", "OrderNumber": 14}, {"ItemOID": "IT.QSCG.VISITDY", "Mandatory": "No", "OrderNumber": 15}, {"ItemOID": "IT.QSCG.QSDTC", "Mandatory": "No", "OrderNumber": 16, "KeySequence": 5}, {"ItemOID": "IT.QSCG.QSDY", "Mandatory": "No", "MethodOID": "MT.QSDY", "OrderNumber": 17}], "Class": {"Name": "FINDINGS"}, "leaf": {"ID": "LF.QSCG", "href": "qscg.xpt", "title": {"_content": "qscg.xpt"}}}, {"OID": "IG.QSCS", "Name": "QSCS", "Repeating": "Yes", "Domain": "QSCS", "SASDatasetName": "QSCS", "IsReferenceData": "No", "Purpose": "Tabulation", "Structure": "One record per questionnaire per question per visit per subject", "ArchiveLocationID": "LF.QSCS", "CommentOID": "COM.DOMAIN.QS", "StandardOID": "STD.1", "Description": {"TranslatedText": [{"lang": "en", "_content": "Questionnaire-QSCS"}]}, "ItemRef": [{"ItemOID": "IT.QSCS.STUDYID", "Mandatory": "Yes", "OrderNumber": 1, "KeySequence": 1}, {"ItemOID": "IT.QSCS.DOMAIN", "Mandatory": "Yes", "OrderNumber": 2}, {"ItemOID": "IT.QSCS.USUBJID", "Mandatory": "Yes", "MethodOID": "MT.USUBJID", "OrderNumber": 3, "KeySequence": 2}, {"ItemOID": "IT.QSCS.QSSEQ", "Mandatory": "Yes", "MethodOID": "MT.SEQ", "OrderNumber": 4}, {"ItemOID": "IT.QSCS.QSTESTCD", "Mandatory": "Yes", "OrderNumber": 5, "KeySequence": 4}, {"ItemOID": "IT.QSCS.QSTEST", "Mandatory": "Yes", "OrderNumber": 6}, {"ItemOID": "IT.QSCS.QSCAT", "Mandatory": "Yes", "OrderNumber": 7, "KeySequence": 3}, {"ItemOID": "IT.QSCS.QSSCAT", "Mandatory": "No", "OrderNumber": 8}, {"ItemOID": "IT.QSCS.QSORRES", "Mandatory": "No", "OrderNumber": 9}, {"ItemOID": "IT.QSCS.QSSTRESC", "Mandatory": "No", "MethodOID": "MT.QSSTRESC", "OrderNumber": 10}, {"ItemOID": "IT.QSCS.QSSTRESN", "Mandatory": "No", "MethodOID": "MT.QSSTRESN", "OrderNumber": 11}, {"ItemOID": "IT.QSCS.QSBLFL", "Mandatory": "No", "MethodOID": "MT.QSBLFL", "OrderNumber": 12}, {"ItemOID": "IT.QSCS.VISITNUM", "Mandatory": "No", "OrderNumber": 13, "KeySequence": 6}, {"ItemOID": "IT.QSCS.VISIT", "Mandatory": "No", "OrderNumber": 14}, {"ItemOID": "IT.QSCS.VISITDY", "Mandatory": "No", "OrderNumber": 15}, {"ItemOID": "IT.QSCS.QSDTC", "Mandatory": "No", "OrderNumber": 16, "KeySequence": 5}, {"ItemOID": "IT.QSCS.QSDY", "Mandatory": "No", "MethodOID": "MT.QSDY", "OrderNumber": 17}, {"ItemOID": "IT.QSCS.QSEVLINT", "Mandatory": "No", "OrderNumber": 18}], "Class": {"Name": "FINDINGS"}, "leaf": {"ID": "LF.QSCS", "href": "qscs.xpt", "title": {"_content": "qscs.xpt"}}}, {"OID": "IG.QSMM", "Name": "QSMM", "Repeating": "Yes", "Domain": "QSMM", "SASDatasetName": "QSMM", "IsReferenceData": "No", "Purpose": "Tabulation", "Structure": "One record per questionnaire per question per visit per subject", "ArchiveLocationID": "LF.QSMM", "CommentOID": "COM.DOMAIN.QS", "StandardOID": "STD.1", "Description": {"TranslatedText": [{"lang": "en", "_content": "Questionnaire-QSMM"}]}, "ItemRef": [{"ItemOID": "IT.QSMM.STUDYID", "Mandatory": "Yes", "OrderNumber": 1, "KeySequence": 1}, {"ItemOID": "IT.QSMM.DOMAIN", "Mandatory": "Yes", "OrderNumber": 2}, {"ItemOID": "IT.QSMM.USUBJID", "Mandatory": "Yes", "MethodOID": "MT.USUBJID", "OrderNumber": 3, "KeySequence": 2}, {"ItemOID": "IT.QSMM.QSSEQ", "Mandatory": "Yes", "MethodOID": "MT.SEQ", "OrderNumber": 4}, {"ItemOID": "IT.QSMM.QSTESTCD", "Mandatory": "Yes", "OrderNumber": 5, "KeySequence": 4}, {"ItemOID": "IT.QSMM.QSTEST", "Mandatory": "Yes", "OrderNumber": 6}, {"ItemOID": "IT.QSMM.QSCAT", "Mandatory": "Yes", "OrderNumber": 7, "KeySequence": 3}, {"ItemOID": "IT.QSMM.QSORRES", "Mandatory": "No", "OrderNumber": 9}, {"ItemOID": "IT.QSMM.QSSTRESC", "Mandatory": "No", "MethodOID": "MT.QSSTRESC", "OrderNumber": 10}, {"ItemOID": "IT.QSMM.QSSTRESN", "Mandatory": "No", "MethodOID": "MT.QSSTRESN", "OrderNumber": 11}, {"ItemOID": "IT.QSMM.QSBLFL", "Mandatory": "No", "MethodOID": "MT.QSBLFL", "OrderNumber": 12}, {"ItemOID": "IT.QSMM.VISITNUM", "Mandatory": "No", "OrderNumber": 13, "KeySequence": 6}, {"ItemOID": "IT.QSMM.VISIT", "Mandatory": "No", "OrderNumber": 14}, {"ItemOID": "IT.QSMM.VISITDY", "Mandatory": "No", "OrderNumber": 15}, {"ItemOID": "IT.QSMM.QSDTC", "Mandatory": "No", "OrderNumber": 16, "KeySequence": 5}, {"ItemOID": "IT.QSMM.QSDY", "Mandatory": "No", "MethodOID": "MT.QSDY", "OrderNumber": 17}], "Class": {"Name": "FINDINGS"}, "leaf": {"ID": "LF.QSMM", "href": "qsmm.xpt", "title": {"_content": "qsmm.xpt"}}}, {"OID": "IG.RELREC", "Name": "RELREC", "Repeating": "Yes", "Domain": "RELREC", "SASDatasetName": "RELREC", "IsReferenceData": "No", "Purpose": "Tabulation", "Structure": "One record per related record, group of records or dataset", "ArchiveLocationID": "LF.RELREC", "CommentOID": "COM.STD1", "StandardOID": "STD.1", "Description": {"TranslatedText": [{"lang": "en", "_content": "Related Records"}]}, "ItemRef": [{"ItemOID": "IT.RELREC.STUDYID", "Mandatory": "Yes", "OrderNumber": 1, "KeySequence": 1}, {"ItemOID": "IT.RELREC.RDOMAIN", "Mandatory": "Yes", "MethodOID": "MT.RDOMAIN", "OrderNumber": 2, "KeySequence": 2}, {"ItemOID": "IT.RELREC.USUBJID", "Mandatory": "No", "MethodOID": "MT.USUBJID", "OrderNumber": 3, "KeySequence": 3}, {"ItemOID": "IT.RELREC.IDVAR", "Mandatory": "Yes", "OrderNumber": 4, "KeySequence": 4}, {"ItemOID": "IT.RELREC.IDVARVAL", "Mandatory": "No", "OrderNumber": 5, "KeySequence": 5}, {"ItemOID": "IT.RELREC.RELTYPE", "Mandatory": "No", "OrderNumber": 6}, {"ItemOID": "IT.RELREC.RELID", "Mandatory": "Yes", "MethodOID": "MT.RELID", "OrderNumber": 7, "KeySequence": 6}], "Class": {"Name": "RELATIONSHIP"}, "leaf": {"ID": "LF.RELREC", "href": "relrec.xpt", "title": {"_content": "relrec.xpt"}}}, {"OID": "IG.SC", "Name": "SC", "Repeating": "No", "Domain": "SC", "SASDatasetName": "SC", "IsReferenceData": "No", "Purpose": "Tabulation", "Structure": "One record per characteristic per subject", "ArchiveLocationID": "LF.SC", "CommentOID": "COM.STD1", "StandardOID": "STD.1", "Description": {"TranslatedText": [{"lang": "en", "_content": "Subject Characteristics"}]}, "ItemRef": [{"ItemOID": "IT.SC.STUDYID", "Mandatory": "Yes", "OrderNumber": 1, "KeySequence": 1}, {"ItemOID": "IT.SC.DOMAIN", "Mandatory": "Yes", "OrderNumber": 2}, {"ItemOID": "IT.SC.USUBJID", "Mandatory": "Yes", "MethodOID": "MT.USUBJID", "OrderNumber": 3, "KeySequence": 2}, {"ItemOID": "IT.SC.SCSEQ", "Mandatory": "Yes", "MethodOID": "MT.SEQ", "OrderNumber": 4}, {"ItemOID": "IT.SC.SCTESTCD", "Mandatory": "Yes", "OrderNumber": 5, "KeySequence": 3}, {"ItemOID": "IT.SC.SCTEST", "Mandatory": "Yes", "OrderNumber": 6}, {"ItemOID": "IT.SC.SCORRES", "Mandatory": "No", "OrderNumber": 7}, {"ItemOID": "IT.SC.SCSTRESC", "Mandatory": "No", "MethodOID": "MT.SCSTRESC", "OrderNumber": 8}, {"ItemOID": "IT.SC.SCDTC", "Mandatory": "No", "OrderNumber": 9}, {"ItemOID": "IT.SC.SCDY", "Mandatory": "No", "MethodOID": "MT.SCDY", "OrderNumber": 10}], "Class": {"Name": "FINDINGS"}, "leaf": {"ID": "LF.SC", "href": "sc.xpt", "title": {"_content": "sc.xpt"}}}, {"OID": "IG.SE", "Name": "SE", "Repeating": "Yes", "Domain": "SE", "SASDatasetName": "SE", "IsReferenceData": "No", "Purpose": "Tabulation", "Structure": "One record per actual Element per subject", "ArchiveLocationID": "LF.SE", "CommentOID": "COM.STD1", "StandardOID": "STD.1", "Description": {"TranslatedText": [{"lang": "en", "_content": "Subject Elements"}]}, "ItemRef": [{"ItemOID": "IT.SE.STUDYID", "Mandatory": "Yes", "OrderNumber": 1, "KeySequence": 1}, {"ItemOID": "IT.SE.DOMAIN", "Mandatory": "Yes", "OrderNumber": 2}, {"ItemOID": "IT.SE.USUBJID", "Mandatory": "Yes", "MethodOID": "MT.USUBJID", "OrderNumber": 3, "KeySequence": 2}, {"ItemOID": "IT.SE.SESEQ", "Mandatory": "Yes", "MethodOID": "MT.SEQ", "OrderNumber": 4}, {"ItemOID": "IT.SE.ETCD", "Mandatory": "Yes", "OrderNumber": 5, "KeySequence": 6}, {"ItemOID": "IT.SE.ELEMENT", "Mandatory": "No", "OrderNumber": 6}, {"ItemOID": "IT.SE.SESTDTC", "Mandatory": "Yes", "MethodOID": "MT.SESTDTC", "OrderNumber": 7, "KeySequence": 3}, {"ItemOID": "IT.SE.SEENDTC", "Mandatory": "No", "MethodOID": "MT.SEENDTC", "OrderNumber": 8, "KeySequence": 4}, {"ItemOID": "IT.SE.TAETORD", "Mandatory": "No", "OrderNumber": 9, "KeySequence": 5}], "Class": {"Name": "SPECIAL PURPOSE"}, "leaf": {"ID": "LF.SE", "href": "se.xpt", "title": {"_content": "se.xpt"}}}, {"OID": "IG.SUPPAE", "Name": "SUPPAE", "Repeating": "Yes", "Domain": "SUPPAE", "SASDatasetName": "SUPPAE", "IsReferenceData": "No", "Purpose": "Tabulation", "Structure": "One record per IDVAR, IDVARVAL, and QNAM value per subject", "ArchiveLocationID": "LF.SUPPAE", "CommentOID": "COM.STD1", "StandardOID": "STD.1", "Description": {"TranslatedText": [{"lang": "en", "_content": "Supplemental Qualifiers for AE"}]}, "ItemRef": [{"ItemOID": "IT.SUPPAE.STUDYID", "Mandatory": "Yes", "OrderNumber": 1, "KeySequence": 1}, {"ItemOID": "IT.SUPPAE.RDOMAIN", "Mandatory": "Yes", "MethodOID": "MT.RDOMAIN", "OrderNumber": 2, "KeySequence": 2}, {"ItemOID": "IT.SUPPAE.USUBJID", "Mandatory": "Yes", "MethodOID": "MT.USUBJID", "OrderNumber": 3, "KeySequence": 3}, {"ItemOID": "IT.SUPPAE.IDVAR", "Mandatory": "No", "OrderNumber": 4, "KeySequence": 4}, {"ItemOID": "IT.SUPPAE.IDVARVAL", "Mandatory": "No", "OrderNumber": 5, "KeySequence": 5}, {"ItemOID": "IT.SUPPAE.QNAM", "Mandatory": "Yes", "OrderNumber": 6, "KeySequence": 6}, {"ItemOID": "IT.SUPPAE.QLABEL", "Mandatory": "Yes", "OrderNumber": 7}, {"ItemOID": "IT.SUPPAE.QVAL", "Mandatory": "Yes", "OrderNumber": 8}, {"ItemOID": "IT.SUPPAE.QORIG", "Mandatory": "Yes", "OrderNumber": 9}, {"ItemOID": "IT.SUPPAE.QEVAL", "Mandatory": "No", "OrderNumber": 10}], "Class": {"Name": "RELATIONSHIP"}, "leaf": {"ID": "LF.SUPPAE", "href": "suppae.xpt", "title": {"_content": "suppae.xpt"}}}, {"OID": "IG.SUPPCM", "Name": "SUPPCM", "Repeating": "Yes", "Domain": "SUPPCM", "SASDatasetName": "SUPPCM", "IsReferenceData": "No", "Purpose": "Tabulation", "Structure": "One record per IDVAR, IDVARVAL, and QNAM value per subject", "ArchiveLocationID": "LF.SUPPCM", "CommentOID": "COM.STD1", "StandardOID": "STD.1", "Description": {"TranslatedText": [{"lang": "en", "_content": "Supplemental Qualifiers for CM"}]}, "ItemRef": [{"ItemOID": "IT.SUPPCM.STUDYID", "Mandatory": "Yes", "OrderNumber": 1, "KeySequence": 1}, {"ItemOID": "IT.SUPPCM.RDOMAIN", "Mandatory": "Yes", "MethodOID": "MT.RDOMAIN", "OrderNumber": 2, "KeySequence": 2}, {"ItemOID": "IT.SUPPCM.USUBJID", "Mandatory": "Yes", "MethodOID": "MT.USUBJID", "OrderNumber": 3, "KeySequence": 3}, {"ItemOID": "IT.SUPPCM.IDVAR", "Mandatory": "No", "OrderNumber": 4, "KeySequence": 4}, {"ItemOID": "IT.SUPPCM.IDVARVAL", "Mandatory": "No", "OrderNumber": 5, "KeySequence": 5}, {"ItemOID": "IT.SUPPCM.QNAM", "Mandatory": "Yes", "OrderNumber": 6, "KeySequence": 6}, {"ItemOID": "IT.SUPPCM.QLABEL", "Mandatory": "Yes", "OrderNumber": 7}, {"ItemOID": "IT.SUPPCM.QVAL", "Mandatory": "Yes", "OrderNumber": 8}, {"ItemOID": "IT.SUPPCM.QORIG", "Mandatory": "Yes", "OrderNumber": 9}, {"ItemOID": "IT.SUPPCM.QEVAL", "Mandatory": "No", "OrderNumber": 10}], "Class": {"Name": "RELATIONSHIP"}, "leaf": {"ID": "LF.SUPPCM", "href": "suppcm.xpt", "title": {"_content": "suppcm.xpt"}}}, {"OID": "IG.SUPPDM", "Name": "SUPPDM", "Repeating": "Yes", "Domain": "SUPPDM", "SASDatasetName": "SUPPDM", "IsReferenceData": "No", "Purpose": "Tabulation", "Structure": "One record per IDVAR, IDVARVAL, and QNAM value per subject", "ArchiveLocationID": "LF.SUPPDM", "CommentOID": "COM.STD1", "StandardOID": "STD.1", "Description": {"TranslatedText": [{"lang": "en", "_content": "Supplemental Qualifiers for DM"}]}, "ItemRef": [{"ItemOID": "IT.SUPPDM.STUDYID", "Mandatory": "Yes", "OrderNumber": 1, "KeySequence": 1}, {"ItemOID": "IT.SUPPDM.RDOMAIN", "Mandatory": "Yes", "MethodOID": "MT.RDOMAIN", "OrderNumber": 2, "KeySequence": 2}, {"ItemOID": "IT.SUPPDM.USUBJID", "Mandatory": "Yes", "MethodOID": "MT.USUBJID", "OrderNumber": 3, "KeySequence": 3}, {"ItemOID": "IT.SUPPDM.IDVAR", "Mandatory": "No", "OrderNumber": 4, "KeySequence": 4}, {"ItemOID": "IT.SUPPDM.IDVARVAL", "Mandatory": "No", "OrderNumber": 5, "KeySequence": 5}, {"ItemOID": "IT.SUPPDM.QNAM", "Mandatory": "Yes", "OrderNumber": 6, "KeySequence": 6}, {"ItemOID": "IT.SUPPDM.QLABEL", "Mandatory": "Yes", "OrderNumber": 7}, {"ItemOID": "IT.SUPPDM.QVAL", "Mandatory": "Yes", "OrderNumber": 8}, {"ItemOID": "IT.SUPPDM.QORIG", "Mandatory": "Yes", "OrderNumber": 9}, {"ItemOID": "IT.SUPPDM.QEVAL", "Mandatory": "No", "OrderNumber": 10}], "Class": {"Name": "RELATIONSHIP"}, "leaf": {"ID": "LF.SUPPDM", "href": "suppdm.xpt", "title": {"_content": "suppdm.xpt"}}}, {"OID": "IG.SUPPEG", "Name": "SUPPEG", "Repeating": "Yes", "Domain": "SUPPEG", "SASDatasetName": "SUPPEG", "IsReferenceData": "No", "Purpose": "Tabulation", "Structure": "One record per IDVAR, IDVARVAL, and QNAM value per subject", "ArchiveLocationID": "LF.SUPPEG", "CommentOID": "COM.STD1", "StandardOID": "STD.1", "Description": {"TranslatedText": [{"lang": "en", "_content": "Supplemental Qualifiers for EG"}]}, "ItemRef": [{"ItemOID": "IT.SUPPEG.STUDYID", "Mandatory": "Yes", "OrderNumber": 1, "KeySequence": 1}, {"ItemOID": "IT.SUPPEG.RDOMAIN", "Mandatory": "Yes", "MethodOID": "MT.RDOMAIN", "OrderNumber": 2, "KeySequence": 2}, {"ItemOID": "IT.SUPPEG.USUBJID", "Mandatory": "Yes", "MethodOID": "MT.USUBJID", "OrderNumber": 3, "KeySequence": 3}, {"ItemOID": "IT.SUPPEG.IDVAR", "Mandatory": "No", "OrderNumber": 4, "KeySequence": 4}, {"ItemOID": "IT.SUPPEG.IDVARVAL", "Mandatory": "No", "OrderNumber": 5, "KeySequence": 5}, {"ItemOID": "IT.SUPPEG.QNAM", "Mandatory": "Yes", "OrderNumber": 6, "KeySequence": 6}, {"ItemOID": "IT.SUPPEG.QLABEL", "Mandatory": "Yes", "OrderNumber": 7}, {"ItemOID": "IT.SUPPEG.QVAL", "Mandatory": "Yes", "OrderNumber": 8}, {"ItemOID": "IT.SUPPEG.QORIG", "Mandatory": "Yes", "OrderNumber": 9}, {"ItemOID": "IT.SUPPEG.QEVAL", "Mandatory": "No", "OrderNumber": 10}], "Class": {"Name": "RELATIONSHIP"}, "leaf": {"ID": "LF.SUPPEG", "href": "suppeg.xpt", "title": {"_content": "suppeg.xpt"}}}, {"OID": "IG.SUPPEX", "Name": "SUPPEX", "Repeating": "Yes", "Domain": "SUPPEX", "SASDatasetName": "SUPPEX", "IsReferenceData": "No", "Purpose": "Tabulation", "Structure": "One record per IDVAR, IDVARVAL, and QNAM value per subject", "ArchiveLocationID": "LF.SUPPEX", "CommentOID": "COM.STD1", "StandardOID": "STD.1", "Description": {"TranslatedText": [{"lang": "en", "_content": "Supplemental Qualifiers for EX"}]}, "ItemRef": [{"ItemOID": "IT.SUPPEX.STUDYID", "Mandatory": "Yes", "OrderNumber": 1, "KeySequence": 1}, {"ItemOID": "IT.SUPPEX.RDOMAIN", "Mandatory": "Yes", "MethodOID": "MT.RDOMAIN", "OrderNumber": 2, "KeySequence": 2}, {"ItemOID": "IT.SUPPEX.USUBJID", "Mandatory": "Yes", "MethodOID": "MT.USUBJID", "OrderNumber": 3, "KeySequence": 3}, {"ItemOID": "IT.SUPPEX.IDVAR", "Mandatory": "No", "OrderNumber": 4, "KeySequence": 4}, {"ItemOID": "IT.SUPPEX.IDVARVAL", "Mandatory": "No", "OrderNumber": 5, "KeySequence": 5}, {"ItemOID": "IT.SUPPEX.QNAM", "Mandatory": "Yes", "OrderNumber": 6, "KeySequence": 6}, {"ItemOID": "IT.SUPPEX.QLABEL", "Mandatory": "Yes", "OrderNumber": 7}, {"ItemOID": "IT.SUPPEX.QVAL", "Mandatory": "Yes", "OrderNumber": 8}, {"ItemOID": "IT.SUPPEX.QORIG", "Mandatory": "Yes", "OrderNumber": 9}, {"ItemOID": "IT.SUPPEX.QEVAL", "Mandatory": "No", "OrderNumber": 10}], "Class": {"Name": "RELATIONSHIP"}, "leaf": {"ID": "LF.SUPPEX", "href": "suppex.xpt", "title": {"_content": "suppex.xpt"}}}, {"OID": "IG.SUPPLB", "Name": "SUPPLB", "Repeating": "Yes", "Domain": "SUPPLB", "SASDatasetName": "SUPPLB", "IsReferenceData": "No", "Purpose": "Tabulation", "Structure": "One record per IDVAR, IDVARVAL, and QNAM value per subject", "ArchiveLocationID": "LF.SUPPLB", "CommentOID": "COM.STD1", "StandardOID": "STD.1", "Description": {"TranslatedText": [{"lang": "en", "_content": "Supplemental Qualifiers for LB"}]}, "ItemRef": [{"ItemOID": "IT.SUPPLB.STUDYID", "Mandatory": "Yes", "OrderNumber": 1, "KeySequence": 1}, {"ItemOID": "IT.SUPPLB.RDOMAIN", "Mandatory": "Yes", "MethodOID": "MT.RDOMAIN", "OrderNumber": 2, "KeySequence": 2}, {"ItemOID": "IT.SUPPLB.USUBJID", "Mandatory": "Yes", "MethodOID": "MT.USUBJID", "OrderNumber": 3, "KeySequence": 3}, {"ItemOID": "IT.SUPPLB.IDVAR", "Mandatory": "No", "OrderNumber": 4, "KeySequence": 4}, {"ItemOID": "IT.SUPPLB.IDVARVAL", "Mandatory": "No", "OrderNumber": 5, "KeySequence": 5}, {"ItemOID": "IT.SUPPLB.QNAM", "Mandatory": "Yes", "OrderNumber": 6, "KeySequence": 6}, {"ItemOID": "IT.SUPPLB.QLABEL", "Mandatory": "Yes", "OrderNumber": 7}, {"ItemOID": "IT.SUPPLB.QVAL", "Mandatory": "Yes", "OrderNumber": 8}, {"ItemOID": "IT.SUPPLB.QORIG", "Mandatory": "Yes", "OrderNumber": 9}, {"ItemOID": "IT.SUPPLB.QEVAL", "Mandatory": "No", "OrderNumber": 10}], "Class": {"Name": "RELATIONSHIP"}, "leaf": {"ID": "LF.SUPPLB", "href": "supplb.xpt", "title": {"_content": "supplb.xpt"}}}, {"OID": "IG.SUPPQSCG", "Name": "SUPPQSCG", "Repeating": "Yes", "Domain": "SUPPQSCG", "SASDatasetName": "SUPPQSCG", "IsReferenceData": "No", "Purpose": "Tabulation", "Structure": "One record per IDVAR, IDVARVAL, and QNAM value per subject", "ArchiveLocationID": "LF.SUPPQSCG", "CommentOID": "COM.STD1", "StandardOID": "STD.1", "Description": {"TranslatedText": [{"lang": "en", "_content": "Supplemental Qualifiers for QSCG"}]}, "ItemRef": [{"ItemOID": "IT.SUPPQSCG.STUDYID", "Mandatory": "Yes", "OrderNumber": 1, "KeySequence": 1}, {"ItemOID": "IT.SUPPQSCG.RDOMAIN", "Mandatory": "Yes", "MethodOID": "MT.RDOMAIN", "OrderNumber": 2, "KeySequence": 2}, {"ItemOID": "IT.SUPPQSCG.USUBJID", "Mandatory": "Yes", "MethodOID": "MT.USUBJID", "OrderNumber": 3, "KeySequence": 3}, {"ItemOID": "IT.SUPPQSCG.IDVAR", "Mandatory": "No", "OrderNumber": 4, "KeySequence": 4}, {"ItemOID": "IT.SUPPQSCG.IDVARVAL", "Mandatory": "No", "OrderNumber": 5, "KeySequence": 5}, {"ItemOID": "IT.SUPPQSCG.QNAM", "Mandatory": "Yes", "OrderNumber": 6, "KeySequence": 6}, {"ItemOID": "IT.SUPPQSCG.QLABEL", "Mandatory": "Yes", "OrderNumber": 7}, {"ItemOID": "IT.SUPPQSCG.QVAL", "Mandatory": "Yes", "OrderNumber": 8}, {"ItemOID": "IT.SUPPQSCG.QORIG", "Mandatory": "Yes", "OrderNumber": 9}, {"ItemOID": "IT.SUPPQSCG.QEVAL", "Mandatory": "No", "OrderNumber": 10}], "Class": {"Name": "RELATIONSHIP"}, "leaf": {"ID": "LF.SUPPQSCG", "href": "suppqscg.xpt", "title": {"_content": "suppqscg.xpt"}}}, {"OID": "IG.SUPPQSCS", "Name": "SUPPQSCS", "Repeating": "Yes", "Domain": "SUPPQSCS", "SASDatasetName": "SUPPQSCS", "IsReferenceData": "No", "Purpose": "Tabulation", "Structure": "One record per IDVAR, IDVARVAL, and QNAM value per subject", "ArchiveLocationID": "LF.SUPPQSCS", "CommentOID": "COM.STD1", "StandardOID": "STD.1", "Description": {"TranslatedText": [{"lang": "en", "_content": "Supplemental Qualifiers for QSCS"}]}, "ItemRef": [{"ItemOID": "IT.SUPPQSCS.STUDYID", "Mandatory": "Yes", "OrderNumber": 1, "KeySequence": 1}, {"ItemOID": "IT.SUPPQSCS.RDOMAIN", "Mandatory": "Yes", "MethodOID": "MT.RDOMAIN", "OrderNumber": 2, "KeySequence": 2}, {"ItemOID": "IT.SUPPQSCS.USUBJID", "Mandatory": "Yes", "MethodOID": "MT.USUBJID", "OrderNumber": 3, "KeySequence": 3}, {"ItemOID": "IT.SUPPQSCS.IDVAR", "Mandatory": "No", "OrderNumber": 4, "KeySequence": 4}, {"ItemOID": "IT.SUPPQSCS.IDVARVAL", "Mandatory": "No", "OrderNumber": 5, "KeySequence": 5}, {"ItemOID": "IT.SUPPQSCS.QNAM", "Mandatory": "Yes", "OrderNumber": 6, "KeySequence": 6}, {"ItemOID": "IT.SUPPQSCS.QLABEL", "Mandatory": "Yes", "OrderNumber": 7}, {"ItemOID": "IT.SUPPQSCS.QVAL", "Mandatory": "Yes", "OrderNumber": 8}, {"ItemOID": "IT.SUPPQSCS.QORIG", "Mandatory": "Yes", "OrderNumber": 9}, {"ItemOID": "IT.SUPPQSCS.QEVAL", "Mandatory": "No", "OrderNumber": 10}], "Class": {"Name": "RELATIONSHIP"}, "leaf": {"ID": "LF.SUPPQSCS", "href": "suppqscs.xpt", "title": {"_content": "suppqscs.xpt"}}}, {"OID": "IG.SUPPQSMM", "Name": "SUPPQSMM", "Repeating": "Yes", "Domain": "SUPPQSMM", "SASDatasetName": "SUPPQSMM", "IsReferenceData": "No", "Purpose": "Tabulation", "Structure": "One record per IDVAR, IDVARVAL, and QNAM value per subject", "ArchiveLocationID": "LF.SUPPQSMM", "CommentOID": "COM.STD1", "StandardOID": "STD.1", "Description": {"TranslatedText": [{"lang": "en", "_content": "Supplemental Qualifiers for QSMM"}]}, "ItemRef": [{"ItemOID": "IT.SUPPQSMM.STUDYID", "Mandatory": "Yes", "OrderNumber": 1, "KeySequence": 1}, {"ItemOID": "IT.SUPPQSMM.RDOMAIN", "Mandatory": "Yes", "MethodOID": "MT.RDOMAIN", "OrderNumber": 2, "KeySequence": 2}, {"ItemOID": "IT.SUPPQSMM.USUBJID", "Mandatory": "Yes", "MethodOID": "MT.USUBJID", "OrderNumber": 3, "KeySequence": 3}, {"ItemOID": "IT.SUPPQSMM.IDVAR", "Mandatory": "No", "OrderNumber": 4, "KeySequence": 4}, {"ItemOID": "IT.SUPPQSMM.IDVARVAL", "Mandatory": "No", "OrderNumber": 5, "KeySequence": 5}, {"ItemOID": "IT.SUPPQSMM.QNAM", "Mandatory": "Yes", "OrderNumber": 6, "KeySequence": 6}, {"ItemOID": "IT.SUPPQSMM.QLABEL", "Mandatory": "Yes", "OrderNumber": 7}, {"ItemOID": "IT.SUPPQSMM.QVAL", "Mandatory": "Yes", "OrderNumber": 8}, {"ItemOID": "IT.SUPPQSMM.QORIG", "Mandatory": "Yes", "OrderNumber": 9}, {"ItemOID": "IT.SUPPQSMM.QEVAL", "Mandatory": "No", "OrderNumber": 10}], "Class": {"Name": "RELATIONSHIP"}, "leaf": {"ID": "LF.SUPPQSMM", "href": "suppqsmm.xpt", "title": {"_content": "suppqsmm.xpt"}}}, {"OID": "IG.SUPPVS", "Name": "SUPPVS", "Repeating": "Yes", "Domain": "SUPPVS", "SASDatasetName": "SUPPVS", "IsReferenceData": "No", "Purpose": "Tabulation", "Structure": "One record per IDVAR, IDVARVAL, and QNAM value per subject", "ArchiveLocationID": "LF.SUPPVS", "CommentOID": "COM.STD1", "StandardOID": "STD.1", "Description": {"TranslatedText": [{"lang": "en", "_content": "Supplemental Qualifiers for VS"}]}, "ItemRef": [{"ItemOID": "IT.SUPPVS.STUDYID", "Mandatory": "Yes", "OrderNumber": 1, "KeySequence": 1}, {"ItemOID": "IT.SUPPVS.RDOMAIN", "Mandatory": "Yes", "MethodOID": "MT.RDOMAIN", "OrderNumber": 2, "KeySequence": 2}, {"ItemOID": "IT.SUPPVS.USUBJID", "Mandatory": "Yes", "MethodOID": "MT.USUBJID", "OrderNumber": 3, "KeySequence": 3}, {"ItemOID": "IT.SUPPVS.IDVAR", "Mandatory": "No", "OrderNumber": 4, "KeySequence": 4}, {"ItemOID": "IT.SUPPVS.IDVARVAL", "Mandatory": "No", "OrderNumber": 5, "KeySequence": 5}, {"ItemOID": "IT.SUPPVS.QNAM", "Mandatory": "Yes", "OrderNumber": 6, "KeySequence": 6}, {"ItemOID": "IT.SUPPVS.QLABEL", "Mandatory": "Yes", "OrderNumber": 7}, {"ItemOID": "IT.SUPPVS.QVAL", "Mandatory": "Yes", "OrderNumber": 8}, {"ItemOID": "IT.SUPPVS.QORIG", "Mandatory": "Yes", "OrderNumber": 9}, {"ItemOID": "IT.SUPPVS.QEVAL", "Mandatory": "No", "OrderNumber": 10}], "Class": {"Name": "RELATIONSHIP"}, "leaf": {"ID": "LF.SUPPVS", "href": "suppvs.xpt", "title": {"_content": "suppvs.xpt"}}}, {"OID": "IG.SV", "Name": "SV", "Repeating": "Yes", "Domain": "SV", "SASDatasetName": "SV", "IsReferenceData": "No", "Purpose": "Tabulation", "Structure": "One record per actual visit per subject", "ArchiveLocationID": "LF.SV", "CommentOID": "COM.STD1", "StandardOID": "STD.1", "Description": {"TranslatedText": [{"lang": "en", "_content": "Subject Visits"}]}, "ItemRef": [{"ItemOID": "IT.SV.STUDYID", "Mandatory": "Yes", "OrderNumber": 1, "KeySequence": 1}, {"ItemOID": "IT.SV.DOMAIN", "Mandatory": "Yes", "OrderNumber": 2}, {"ItemOID": "IT.SV.USUBJID", "Mandatory": "Yes", "MethodOID": "MT.USUBJID", "OrderNumber": 3, "KeySequence": 2}, {"ItemOID": "IT.SV.VISITNUM", "Mandatory": "Yes", "MethodOID": "MT.SV.VISITNUM", "OrderNumber": 4, "KeySequence": 4}, {"ItemOID": "IT.SV.VISIT", "Mandatory": "No", "MethodOID": "MT.SV.VISIT", "OrderNumber": 5}, {"ItemOID": "IT.SV.VISITDY", "Mandatory": "No", "OrderNumber": 6}, {"ItemOID": "IT.SV.SVSTDTC", "Mandatory": "No", "MethodOID": "MT.SVSTDTC", "OrderNumber": 7, "KeySequence": 3}, {"ItemOID": "IT.SV.SVENDTC", "Mandatory": "No", "MethodOID": "MT.SVENDTC", "OrderNumber": 8}, {"ItemOID": "IT.SV.SVSTDY", "Mandatory": "No", "MethodOID": "MT.SVSTDY", "OrderNumber": 9}], "Class": {"Name": "SPECIAL PURPOSE"}, "leaf": {"ID": "LF.SV", "href": "sv.xpt", "title": {"_content": "sv.xpt"}}}, {"OID": "IG.TA", "Name": "TA", "Repeating": "No", "Domain": "TA", "SASDatasetName": "TA", "IsReferenceData": "Yes", "Purpose": "Tabulation", "Structure": "One record per planned Element per Arm", "ArchiveLocationID": "LF.TA", "CommentOID": "COM.STD1", "StandardOID": "STD.1", "Description": {"TranslatedText": [{"lang": "en", "_content": "Trial Arms"}]}, "ItemRef": [{"ItemOID": "IT.TA.STUDYID", "Mandatory": "Yes", "OrderNumber": 1, "KeySequence": 1}, {"ItemOID": "IT.TA.DOMAIN", "Mandatory": "Yes", "OrderNumber": 2}, {"ItemOID": "IT.TA.ARMCD", "Mandatory": "Yes", "OrderNumber": 3, "KeySequence": 2}, {"ItemOID": "IT.TA.ARM", "Mandatory": "Yes", "OrderNumber": 4}, {"ItemOID": "IT.TA.TAETORD", "Mandatory": "Yes", "OrderNumber": 5, "KeySequence": 3}, {"ItemOID": "IT.TA.ETCD", "Mandatory": "Yes", "OrderNumber": 6}, {"ItemOID": "IT.TA.ELEMENT", "Mandatory": "No", "OrderNumber": 7}, {"ItemOID": "IT.TA.TABRANCH", "Mandatory": "No", "OrderNumber": 8}, {"ItemOID": "IT.TA.TATRANS", "Mandatory": "No", "OrderNumber": 9}, {"ItemOID": "IT.TA.EPOCH", "Mandatory": "Yes", "OrderNumber": 10}], "Class": {"Name": "TRIAL DESIGN"}, "leaf": {"ID": "LF.TA", "href": "ta.xpt", "title": {"_content": "ta.xpt"}}}, {"OID": "IG.TE", "Name": "TE", "Repeating": "No", "Domain": "TE", "SASDatasetName": "TE", "IsReferenceData": "Yes", "Purpose": "Tabulation", "Structure": "One record per planned Element", "ArchiveLocationID": "LF.TE", "CommentOID": "COM.STD1", "StandardOID": "STD.1", "Description": {"TranslatedText": [{"lang": "en", "_content": "Trial Elements"}]}, "ItemRef": [{"ItemOID": "IT.TE.STUDYID", "Mandatory": "Yes", "OrderNumber": 1, "KeySequence": 1}, {"ItemOID": "IT.TE.DOMAIN", "Mandatory": "Yes", "OrderNumber": 2}, {"ItemOID": "IT.TE.ETCD", "Mandatory": "Yes", "OrderNumber": 3, "KeySequence": 2}, {"ItemOID": "IT.TE.ELEMENT", "Mandatory": "Yes", "OrderNumber": 4}, {"ItemOID": "IT.TE.TESTRL", "Mandatory": "Yes", "OrderNumber": 5}, {"ItemOID": "IT.TE.TEDUR", "Mandatory": "No", "OrderNumber": 6}], "Class": {"Name": "TRIAL DESIGN"}, "leaf": {"ID": "LF.TE", "href": "te.xpt", "title": {"_content": "te.xpt"}}}, {"OID": "IG.TI", "Name": "TI", "Repeating": "No", "Domain": "TI", "SASDatasetName": "TI", "IsReferenceData": "Yes", "Purpose": "Tabulation", "Structure": "One record per I/E criterion", "ArchiveLocationID": "LF.TI", "CommentOID": "COM.STD1", "StandardOID": "STD.1", "Description": {"TranslatedText": [{"lang": "en", "_content": "Trial Inclusion/Exclusion Criteria"}]}, "ItemRef": [{"ItemOID": "IT.TI.STUDYID", "Mandatory": "Yes", "OrderNumber": 1, "KeySequence": 1}, {"ItemOID": "IT.TI.DOMAIN", "Mandatory": "Yes", "OrderNumber": 2}, {"ItemOID": "IT.TI.IETESTCD", "Mandatory": "Yes", "OrderNumber": 3, "KeySequence": 2}, {"ItemOID": "IT.TI.IETEST", "Mandatory": "Yes", "OrderNumber": 4}, {"ItemOID": "IT.TI.IECAT", "Mandatory": "Yes", "OrderNumber": 5}], "Class": {"Name": "TRIAL DESIGN"}, "leaf": {"ID": "LF.TI", "href": "ti.xpt", "title": {"_content": "ti.xpt"}}}, {"OID": "IG.TS", "Name": "TS", "Repeating": "No", "Domain": "TS", "SASDatasetName": "TS", "IsReferenceData": "Yes", "Purpose": "Tabulation", "Structure": "One record per trial summary parameter value", "ArchiveLocationID": "LF.TS", "CommentOID": "COM.STD1", "StandardOID": "STD.1", "Description": {"TranslatedText": [{"lang": "en", "_content": "Trial Summary"}]}, "ItemRef": [{"ItemOID": "IT.TS.STUDYID", "Mandatory": "Yes", "OrderNumber": 1, "KeySequence": 1}, {"ItemOID": "IT.TS.DOMAIN", "Mandatory": "Yes", "OrderNumber": 2}, {"ItemOID": "IT.TS.TSSEQ", "Mandatory": "Yes", "MethodOID": "MT.TSSEQ", "OrderNumber": 3, "KeySequence": 3}, {"ItemOID": "IT.TS.TSPARMCD", "Mandatory": "Yes", "OrderNumber": 4, "KeySequence": 2}, {"ItemOID": "IT.TS.TSPARM", "Mandatory": "Yes", "OrderNumber": 5}, {"ItemOID": "IT.TS.TSVAL", "Mandatory": "Yes", "OrderNumber": 6}], "Class": {"Name": "TRIAL DESIGN"}, "leaf": {"ID": "LF.TS", "href": "ts.xpt", "title": {"_content": "ts.xpt"}}}, {"OID": "IG.TV", "Name": "TV", "Repeating": "No", "Domain": "TV", "SASDatasetName": "TV", "IsReferenceData": "Yes", "Purpose": "Tabulation", "Structure": "One record per planned Visit per Arm", "ArchiveLocationID": "LF.TV", "CommentOID": "COM.STD1", "StandardOID": "STD.1", "Description": {"TranslatedText": [{"lang": "en", "_content": "Trial Visits"}]}, "ItemRef": [{"ItemOID": "IT.TV.STUDYID", "Mandatory": "Yes", "OrderNumber": 1, "KeySequence": 1}, {"ItemOID": "IT.TV.DOMAIN", "Mandatory": "Yes", "OrderNumber": 2}, {"ItemOID": "IT.TV.VISITNUM", "Mandatory": "Yes", "OrderNumber": 3, "KeySequence": 2}, {"ItemOID": "IT.TV.VISIT", "Mandatory": "No", "OrderNumber": 4}, {"ItemOID": "IT.TV.VISITDY", "Mandatory": "No", "OrderNumber": 5}, {"ItemOID": "IT.TV.ARMCD", "Mandatory": "No", "OrderNumber": 6, "KeySequence": 3}, {"ItemOID": "IT.TV.TVSTRL", "Mandatory": "Yes", "OrderNumber": 7}], "Class": {"Name": "TRIAL DESIGN"}, "leaf": {"ID": "LF.TV", "href": "tv.xpt", "title": {"_content": "tv.xpt"}}}, {"OID": "IG.VS", "Name": "VS", "Repeating": "Yes", "Domain": "VS", "SASDatasetName": "VS", "IsReferenceData": "No", "Purpose": "Tabulation", "Structure": "One record per vital sign measurement per visit per subject", "ArchiveLocationID": "LF.VS", "CommentOID": "COM.STD1", "StandardOID": "STD.1", "Description": {"TranslatedText": [{"lang": "en", "_content": "Vital Signs"}]}, "ItemRef": [{"ItemOID": "IT.VS.STUDYID", "Mandatory": "Yes", "OrderNumber": 1, "KeySequence": 1}, {"ItemOID": "IT.VS.DOMAIN", "Mandatory": "Yes", "OrderNumber": 2}, {"ItemOID": "IT.VS.USUBJID", "Mandatory": "Yes", "MethodOID": "MT.USUBJID", "OrderNumber": 3, "KeySequence": 2}, {"ItemOID": "IT.VS.VSSEQ", "Mandatory": "Yes", "MethodOID": "MT.SEQ", "OrderNumber": 4}, {"ItemOID": "IT.VS.VSTESTCD", "Mandatory": "Yes", "OrderNumber": 5, "KeySequence": 3}, {"ItemOID": "IT.VS.VSTEST", "Mandatory": "Yes", "OrderNumber": 6}, {"ItemOID": "IT.VS.VSPOS", "Mandatory": "No", "OrderNumber": 7, "KeySequence": 6}, {"ItemOID": "IT.VS.VSORRES", "Mandatory": "No", "OrderNumber": 8}, {"ItemOID": "IT.VS.VSORRESU", "Mandatory": "No", "OrderNumber": 9}, {"ItemOID": "IT.VS.VSSTRESC", "Mandatory": "No", "MethodOID": "MT.VSSTRESC", "OrderNumber": 10}, {"ItemOID": "IT.VS.VSSTRESN", "Mandatory": "No", "MethodOID": "MT.VSSTRESN", "OrderNumber": 11}, {"ItemOID": "IT.VS.VSSTRESU", "Mandatory": "No", "OrderNumber": 12}, {"ItemOID": "IT.VS.VSBLFL", "Mandatory": "No", "MethodOID": "MT.VSBLFL", "OrderNumber": 13}, {"ItemOID": "IT.VS.VISITNUM", "Mandatory": "No", "OrderNumber": 14, "KeySequence": 5}, {"ItemOID": "IT.VS.VISIT", "Mandatory": "No", "OrderNumber": 15}, {"ItemOID": "IT.VS.VISITDY", "Mandatory": "No", "OrderNumber": 16}, {"ItemOID": "IT.VS.VSDTC", "Mandatory": "No", "OrderNumber": 17, "KeySequence": 4}, {"ItemOID": "IT.VS.VSDY", "Mandatory": "No", "MethodOID": "MT.VSDY", "OrderNumber": 18}], "Class": {"Name": "FINDINGS"}, "leaf": {"ID": "LF.VS", "href": "vs.xpt", "title": {"_content": "vs.xpt"}}}], "ItemDef": [{"OID": "IT.AE.STUDYID", "Name": "STUDYID", "DataType": "text", "SASFieldName": "STUDYID", "Length": 7, "Description": {"TranslatedText": [{"lang": "en", "_content": "Study Identifier"}]}, "Origin": [{"Type": "Protocol", "Source": "Sponsor"}]}, {"OID": "IT.AE.DOMAIN", "Name": "DOMAIN", "DataType": "text", "SASFieldName": "DOMAIN", "Length": 2, "Description": {"TranslatedText": [{"lang": "en", "_content": "Domain Abbreviation"}]}, "CodeListRef": {"CodeListOID": "CL.AE.DOMAIN"}, "Origin": [{"Type": "Assigned", "Source": "Sponsor"}]}, {"OID": "IT.AE.USUBJID", "Name": "USUBJID", "DataType": "text", "SASFieldName": "USUBJID", "Length": 14, "Description": {"TranslatedText": [{"lang": "en", "_content": "Unique Subject Identifier"}]}, "Origin": [{"Type": "Derived", "Source": "Sponsor"}]}, {"OID": "IT.AE.AESEQ", "Name": "AESEQ", "DataType": "integer", "SASFieldName": "AESEQ", "Length": 1, "Description": {"TranslatedText": [{"lang": "en", "_content": "Sequence Number"}]}, "Origin": [{"Type": "Derived", "Source": "Sponsor"}]}, {"OID": "IT.AE.AESPID", "Name": "AESPID", "DataType": "text", "SASFieldName": "AESPID", "Length": 4, "Description": {"TranslatedText": [{"lang": "en", "_content": "Sponsor-Defined Identifier"}]}, "Origin": [{"Type": "Collected", "Source": "Investigator", "DocumentRef": [{"leafID": "LF.blankcrf", "PDFPageRef": [{"PageRefs": "21", "Type": "PhysicalRef"}]}]}]}, {"OID": "IT.AE.AETERM", "Name": "AETERM", "DataType": "text", "SASFieldName": "AETERM", "Length": 25, "Description": {"TranslatedText": [{"lang": "en", "_content": "Reported Term for the Adverse Event"}]}, "Origin": [{"Type": "Collected", "Source": "Investigator", "DocumentRef": [{"leafID": "LF.blankcrf", "PDFPageRef": [{"PageRefs": "21", "Type": "PhysicalRef"}]}]}]}, {"OID": "IT.AE.AEMODIFY", "Name": "AEMODIFY", "DataType": "text", "SASFieldName": "AEMODIFY", "Length": 9, "Description": {"TranslatedText": [{"lang": "en", "_content": "Modified Reported Term"}]}, "Origin": [{"Type": "Assigned", "Source": "Sponsor"}]}, {"OID": "IT.AE.AEDECOD", "Name": "AEDECOD", "DataType": "text", "SASFieldName": "AEDECOD", "Length": 18, "Description": {"TranslatedText": [{"lang": "en", "_content": "Dictionary-Derived Term"}]}, "CodeListRef": {"CodeListOID": "CL.AEDICT_F"}, "Origin": [{"Type": "Assigned", "Source": "Sponsor"}]}, {"OID": "IT.AE.AEBODSYS", "Name": "AEBODSYS", "DataType": "text", "SASFieldName": "AEBODSYS", "Length": 52, "Description": {"TranslatedText": [{"lang": "en", "_content": "Body System or Organ Class"}]}, "CodeListRef": {"CodeListOID": "CL.AEDICT_F"}, "Origin": [{"Type": "Assigned", "Source": "Sponsor"}]}, {"OID": "IT.AE.AESEV", "Name": "AESEV", "DataType": "text", "SASFieldName": "AESEV", "Length": 8, "Description": {"TranslatedText": [{"lang": "en", "_content": "Severity/Intensity"}]}, "CodeListRef": {"CodeListOID": "CL.AESEV"}, "Origin": [{"Type": "Collected", "Source": "Investigator", "DocumentRef": [{"leafID": "LF.blankcrf", "PDFPageRef": [{"PageRefs": "21", "Type": "PhysicalRef"}]}]}]}, {"OID": "IT.AE.AESER", "Name": "AESER", "DataType": "text", "SASFieldName": "AESER", "Length": 1, "Description": {"TranslatedText": [{"lang": "en", "_content": "Serious Event"}]}, "CodeListRef": {"CodeListOID": "CL.NY"}, "Origin": [{"Type": "Collected", "Source": "Investigator", "DocumentRef": [{"leafID": "LF.blankcrf", "PDFPageRef": [{"PageRefs": "21", "Type": "PhysicalRef"}]}]}]}, {"OID": "IT.AE.AEACN", "Name": "AEACN", "DataType": "text", "SASFieldName": "AEACN", "Length": 30, "Description": {"TranslatedText": [{"lang": "en", "_content": "Action Taken with Study Treatment"}]}, "CodeListRef": {"CodeListOID": "CL.ACN"}, "Origin": [{"Type": "Collected", "Source": "Investigator", "DocumentRef": [{"leafID": "LF.blankcrf", "PDFPageRef": [{"PageRefs": "21", "Type": "PhysicalRef"}]}]}]}, {"OID": "IT.AE.AEREL", "Name": "AEREL", "DataType": "text", "SASFieldName": "AEREL", "Length": 16, "Description": {"TranslatedText": [{"lang": "en", "_content": "Causality"}]}, "CodeListRef": {"CodeListOID": "CL.AEREL"}, "Origin": [{"Type": "Collected", "Source": "Investigator", "DocumentRef": [{"leafID": "LF.blankcrf", "PDFPageRef": [{"PageRefs": "21", "Type": "PhysicalRef"}]}]}]}, {"OID": "IT.AE.AESTDTC", "Name": "AESTDTC", "DataType": "date", "SASFieldName": "AESTDTC", "Description": {"TranslatedText": [{"lang": "en", "_content": "Start Date/Time of Adverse Event"}]}, "Origin": [{"Type": "Collected", "Source": "Investigator", "DocumentRef": [{"leafID": "LF.blankcrf", "PDFPageRef": [{"PageRefs": "21", "Type": "PhysicalRef"}]}]}]}, {"OID": "IT.AE.AEENDTC", "Name": "AEENDTC", "DataType": "date", "SASFieldName": "AEENDTC", "Description": {"TranslatedText": [{"lang": "en", "_content": "End Date/Time of Adverse Event"}]}, "Origin": [{"Type": "Collected", "Source": "Investigator", "DocumentRef": [{"leafID": "LF.blankcrf", "PDFPageRef": [{"PageRefs": "21", "Type": "PhysicalRef"}]}]}]}, {"OID": "IT.AE.AESTDY", "Name": "AESTDY", "DataType": "integer", "SASFieldName": "AESTDY", "Length": 3, "Description": {"TranslatedText": [{"lang": "en", "_content": "Study Day of Start of Adverse Event"}]}, "Origin": [{"Type": "Derived", "Source": "Sponsor"}]}, {"OID": "IT.AE.AEENDY", "Name": "AEENDY", "DataType": "integer", "SASFieldName": "AEENDY", "Length": 3, "Description": {"TranslatedText": [{"lang": "en", "_content": "Study Day of End of Adverse Event"}]}, "Origin": [{"Type": "Derived", "Source": "Sponsor"}]}, {"OID": "IT.AE.AEENRF", "Name": "AEENRF", "DataType": "text", "SASFieldName": "AEENRF", "Length": 5, "Description": {"TranslatedText": [{"lang": "en", "_content": "End Relative to Reference Period"}]}, "CodeListRef": {"CodeListOID": "CL.AEENRF"}, "Origin": [{"Type": "Collected", "Source": "Investigator", "DocumentRef": [{"leafID": "LF.blankcrf", "PDFPageRef": [{"PageRefs": "21", "Type": "PhysicalRef"}]}]}]}, {"OID": "IT.CM.STUDYID", "Name": "STUDYID", "DataType": "text", "SASFieldName": "STUDYID", "Length": 7, "Description": {"TranslatedText": [{"lang": "en", "_content": "Study Identifier"}]}, "Origin": [{"Type": "Protocol", "Source": "Sponsor"}]}, {"OID": "IT.CM.DOMAIN", "Name": "DOMAIN", "DataType": "text", "SASFieldName": "DOMAIN", "Length": 2, "Description": {"TranslatedText": [{"lang": "en", "_content": "Domain Abbreviation"}]}, "CodeListRef": {"CodeListOID": "CL.CM.DOMAIN"}, "Origin": [{"Type": "Assigned", "Source": "Sponsor"}]}, {"OID": "IT.CM.USUBJID", "Name": "USUBJID", "DataType": "text", "SASFieldName": "USUBJID", "Length": 14, "Description": {"TranslatedText": [{"lang": "en", "_content": "Unique Subject Identifier"}]}, "Origin": [{"Type": "Derived", "Source": "Sponsor"}]}, {"OID": "IT.CM.CMSEQ", "Name": "CMSEQ", "DataType": "integer", "SASFieldName": "CMSEQ", "Length": 2, "Description": {"TranslatedText": [{"lang": "en", "_content": "Sequence Number"}]}, "Origin": [{"Type": "Derived", "Source": "Sponsor"}]}, {"OID": "IT.CM.CMTRT", "Name": "CMTRT", "DataType": "text", "SASFieldName": "CMTRT", "Length": 23, "Description": {"TranslatedText": [{"lang": "en", "_content": "Reported Name of Drug, Med, or Therapy"}]}, "Origin": [{"Type": "Collected", "Source": "Investigator", "DocumentRef": [{"leafID": "LF.blankcrf", "PDFPageRef": [{"PageRefs": "9 22", "Type": "PhysicalRef"}]}]}]}, {"OID": "IT.CM.CMMODIFY", "Name": "CMMODIFY", "DataType": "text", "SASFieldName": "CMMODIFY", "Length": 23, "Description": {"TranslatedText": [{"lang": "en", "_content": "Modified Reported Name"}]}, "Origin": [{"Type": "Assigned", "Source": "Sponsor"}]}, {"OID": "IT.CM.CMDECOD", "Name": "CMDECOD", "DataType": "text", "SASFieldName": "CMDECOD", "Length": 30, "Description": {"TranslatedText": [{"lang": "en", "_content": "Standardized Medication Name"}]}, "CodeListRef": {"CodeListOID": "CL.DRUGDICT_F"}, "Origin": [{"Type": "Assigned", "Source": "Sponsor"}]}, {"OID": "IT.CM.CMCAT", "Name": "CMCAT", "DataType": "text", "SASFieldName": "CMCAT", "Length": 36, "Description": {"TranslatedText": [{"lang": "en", "_content": "Category for Medication"}]}, "CodeListRef": {"CodeListOID": "CL.CMCAT"}, "Origin": [{"Type": "Collected", "Source": "Investigator", "DocumentRef": [{"leafID": "LF.blankcrf", "PDFPageRef": [{"PageRefs": "9 22", "Type": "PhysicalRef"}]}]}]}, {"OID": "IT.CM.CMINDC", "Name": "CMINDC", "DataType": "text", "SASFieldName": "CMINDC", "Length": 27, "Description": {"TranslatedText": [{"lang": "en", "_content": "Indication"}]}, "Origin": [{"Type": "Collected", "Source": "Investigator", "DocumentRef": [{"leafID": "LF.blankcrf", "PDFPageRef": [{"PageRefs": "9 22", "Type": "PhysicalRef"}]}]}]}, {"OID": "IT.CM.CMCLAS", "Name": "CMCLAS", "DataType": "text", "SASFieldName": "CMCLAS", "Length": 45, "CommentOID": "COM.CMCLAS", "Description": {"TranslatedText": [{"lang": "en", "_content": "Medication Class"}]}, "CodeListRef": {"CodeListOID": "CL.DRUGDICT_F"}, "Origin": [{"Type": "Assigned", "Source": "Sponsor"}]}, {"OID": "IT.CM.CMCLASCD", "Name": "CMCLASCD", "DataType": "text", "SASFieldName": "CMCLASCD", "Length": 3, "CommentOID": "COM.CMCLASCD", "Description": {"TranslatedText": [{"lang": "en", "_content": "Medication Class Code"}]}, "CodeListRef": {"CodeListOID": "CL.DRUGDICT_F"}, "Origin": [{"Type": "Assigned", "Source": "Sponsor"}]}, {"OID": "IT.CM.CMDOSTXT", "Name": "CMDOSTXT", "DataType": "text", "SASFieldName": "CMDOSTXT", "Length": 4, "Description": {"TranslatedText": [{"lang": "en", "_content": "Dose Description"}]}, "Origin": [{"Type": "Collected", "Source": "Investigator", "DocumentRef": [{"leafID": "LF.blankcrf", "PDFPageRef": [{"PageRefs": "9 22", "Type": "PhysicalRef"}]}]}]}, {"OID": "IT.CM.CMDOSU", "Name": "CMDOSU", "DataType": "text", "SASFieldName": "CMDOSU", "Length": 6, "Description": {"TranslatedText": [{"lang": "en", "_content": "Dose Units"}]}, "CodeListRef": {"CodeListOID": "CL.CMUNIT"}, "Origin": [{"Type": "Collected", "Source": "Investigator", "DocumentRef": [{"leafID": "LF.blankcrf", "PDFPageRef": [{"PageRefs": "9 22", "Type": "PhysicalRef"}]}]}]}, {"OID": "IT.CM.CMDOSFRQ", "Name": "CMDOSFRQ", "DataType": "text", "SASFieldName": "CMDOSFRQ", "Length": 5, "Description": {"TranslatedText": [{"lang": "en", "_content": "Dosing Frequency per Interval"}]}, "CodeListRef": {"CodeListOID": "CL.FREQ"}, "Origin": [{"Type": "Collected", "Source": "Investigator", "DocumentRef": [{"leafID": "LF.blankcrf", "PDFPageRef": [{"PageRefs": "22", "Type": "PhysicalRef"}]}]}]}, {"OID": "IT.CM.CMROUTE", "Name": "CMROUTE", "DataType": "text", "SASFieldName": "CMROUTE", "Length": 12, "CommentOID": "COM.CMROUTE", "Description": {"TranslatedText": [{"lang": "en", "_content": "Route of Administration"}]}, "CodeListRef": {"CodeListOID": "CL.ROUTE"}, "Origin": [{"Type": "Collected", "Source": "Investigator", "DocumentRef": [{"leafID": "LF.blankcrf", "PDFPageRef": [{"PageRefs": "22", "Type": "PhysicalRef"}]}]}]}, {"OID": "IT.CM.CMSTDTC", "Name": "CMSTDTC", "DataType": "date", "SASFieldName": "CMSTDTC", "Description": {"TranslatedText": [{"lang": "en", "_content": "Start Date/Time of Medication"}]}, "Origin": [{"Type": "Collected", "Source": "Investigator", "DocumentRef": [{"leafID": "LF.blankcrf", "PDFPageRef": [{"PageRefs": "9 22", "Type": "PhysicalRef"}]}]}]}, {"OID": "IT.CM.CMENDTC", "Name": "CMENDTC", "DataType": "date", "SASFieldName": "CMENDTC", "Description": {"TranslatedText": [{"lang": "en", "_content": "End Date/Time of Medication"}]}, "Origin": [{"Type": "Collected", "Source": "Investigator", "DocumentRef": [{"leafID": "LF.blankcrf", "PDFPageRef": [{"PageRefs": "9 22", "Type": "PhysicalRef"}]}]}]}, {"OID": "IT.CM.CMSTDY", "Name": "CMSTDY", "DataType": "integer", "SASFieldName": "CMSTDY", "Length": 6, "Description": {"TranslatedText": [{"lang": "en", "_content": "Study Day of Start of Medication"}]}, "Origin": [{"Type": "Derived", "Source": "Sponsor"}]}, {"OID": "IT.CM.CMENDY", "Name": "CMENDY", "DataType": "integer", "SASFieldName": "CMENDY", "Length": 4, "Description": {"TranslatedText": [{"lang": "en", "_content": "Study Day of End of Medication"}]}, "Origin": [{"Type": "Derived", "Source": "Sponsor"}]}, {"OID": "IT.CM.CMENRF", "Name": "CMENRF", "DataType": "text", "SASFieldName": "CMENRF", "Length": 6, "Description": {"TranslatedText": [{"lang": "en", "_content": "End Relative to Reference Period"}]}, "CodeListRef": {"CodeListOID": "CL.CMENRF"}, "Origin": [{"Type": "Collected", "Source": "Investigator", "DocumentRef": [{"leafID": "LF.blankcrf", "PDFPageRef": [{"PageRefs": "22", "Type": "PhysicalRef"}]}]}]}, {"OID": "IT.DA.STUDYID", "Name": "STUDYID", "DataType": "text", "SASFieldName": "STUDYID", "Length": 7, "Description": {"TranslatedText": [{"lang": "en", "_content": "Study Identifier"}]}, "Origin": [{"Type": "Protocol", "Source": "Sponsor"}]}, {"OID": "IT.DA.DOMAIN", "Name": "DOMAIN", "DataType": "text", "SASFieldName": "DOMAIN", "Length": 2, "Description": {"TranslatedText": [{"lang": "en", "_content": "Domain Abbreviation"}]}, "CodeListRef": {"CodeListOID": "CL.DA.DOMAIN"}, "Origin": [{"Type": "Assigned", "Source": "Sponsor"}]}, {"OID": "IT.DA.USUBJID", "Name": "USUBJID", "DataType": "text", "SASFieldName": "USUBJID", "Length": 14, "Description": {"TranslatedText": [{"lang": "en", "_content": "Unique Subject Identifier"}]}, "Origin": [{"Type": "Derived", "Source": "Sponsor"}]}, {"OID": "IT.DA.DASEQ", "Name": "DASEQ", "DataType": "integer", "SASFieldName": "DASEQ", "Length": 1, "Description": {"TranslatedText": [{"lang": "en", "_content": "Sequence Number"}]}, "Origin": [{"Type": "Derived", "Source": "Sponsor"}]}, {"OID": "IT.DA.DATESTCD", "Name": "DATESTCD", "DataType": "text", "SASFieldName": "DATESTCD", "Length": 7, "Description": {"TranslatedText": [{"lang": "en", "_content": "Short Name of Accountability Assessment"}]}, "CodeListRef": {"CodeListOID": "CL.DATESTCD"}, "Origin": [{"Type": "Assigned", "Source": "Sponsor"}]}, {"OID": "IT.DA.DATEST", "Name": "DATEST", "DataType": "text", "SASFieldName": "DATEST", "Length": 25, "Description": {"TranslatedText": [{"lang": "en", "_content": "Name of Accountability Assessment"}]}, "CodeListRef": {"CodeListOID": "CL.DATEST"}, "Origin": [{"Type": "Collected", "Source": "Investigator", "DocumentRef": [{"leafID": "LF.blankcrf", "PDFPageRef": [{"PageRefs": "19", "Type": "PhysicalRef"}]}]}]}, {"OID": "IT.DA.DAORRES", "Name": "DAORRES", "DataType": "text", "SASFieldName": "DAORRES", "Length": 2, "Description": {"TranslatedText": [{"lang": "en", "_content": "Assessment Result in Original Units"}]}, "Origin": [{"Type": "Collected", "Source": "Investigator", "DocumentRef": [{"leafID": "LF.blankcrf", "PDFPageRef": [{"PageRefs": "19", "Type": "PhysicalRef"}]}]}], "ValueListRef": {"ValueListOID": "VL.DA.DAORRES"}}, {"OID": "IT.DA.DAORRESU", "Name": "DAORRESU", "DataType": "text", "SASFieldName": "DAORRESU", "Length": 7, "Description": {"TranslatedText": [{"lang": "en", "_content": "Original Units"}]}, "Origin": [{"Type": "Collected", "Source": "Investigator", "DocumentRef": [{"leafID": "LF.blankcrf", "PDFPageRef": [{"PageRefs": "19", "Type": "PhysicalRef"}]}]}]}, {"OID": "IT.DA.DASTRESC", "Name": "DASTRESC", "DataType": "text", "SASFieldName": "DASTRESC", "Length": 2, "Description": {"TranslatedText": [{"lang": "en", "_content": "Assessment Result in Std Format"}]}, "Origin": [{"Type": "Derived", "Source": "Sponsor"}]}, {"OID": "IT.DA.DASTRESN", "Name": "DASTRESN", "DataType": "integer", "SASFieldName": "DASTRESN", "Length": 2, "Description": {"TranslatedText": [{"lang": "en", "_content": "Numeric Result/Finding in Standard Units"}]}, "Origin": [{"Type": "Derived", "Source": "Sponsor"}]}, {"OID": "IT.DA.DASTRESU", "Name": "DASTRESU", "DataType": "text", "SASFieldName": "DASTRESU", "Length": 7, "Description": {"TranslatedText": [{"lang": "en", "_content": "Assessment Standard Units"}]}, "Origin": [{"Type": "Derived", "Source": "Sponsor"}]}, {"OID": "IT.DA.VISITNUM", "Name": "VISITNUM", "DataType": "integer", "SASFieldName": "VISITNUM", "Length": 2, "Description": {"TranslatedText": [{"lang": "en", "_content": "Visit Number"}]}, "Origin": [{"Type": "Derived", "Source": "Sponsor"}]}, {"OID": "IT.DA.VISIT", "Name": "VISIT", "DataType": "text", "SASFieldName": "VISIT", "Length": 8, "Description": {"TranslatedText": [{"lang": "en", "_content": "Visit Name"}]}, "Origin": [{"Type": "Assigned", "Source": "Sponsor"}]}, {"OID": "IT.DA.VISITDY", "Name": "VISITDY", "DataType": "integer", "SASFieldName": "VISITDY", "Length": 3, "Description": {"TranslatedText": [{"lang": "en", "_content": "Planned Study Day of Visit"}]}, "Origin": [{"Type": "Protocol", "Source": "Sponsor"}]}, {"OID": "IT.DA.DADTC", "Name": "DADTC", "DataType": "date", "SASFieldName": "DADTC", "Description": {"TranslatedText": [{"lang": "en", "_content": "Date/Time of Accountability Assessment"}]}, "Origin": [{"Type": "Collected", "Source": "Investigator", "DocumentRef": [{"leafID": "LF.blankcrf", "PDFPageRef": [{"PageRefs": "19", "Type": "PhysicalRef"}]}]}]}, {"OID": "IT.DA.DADY", "Name": "DADY", "DataType": "integer", "SASFieldName": "DADY", "Length": 3, "Description": {"TranslatedText": [{"lang": "en", "_content": "Study Day of Accountability Assessment"}]}, "Origin": [{"Type": "Derived", "Source": "Sponsor"}]}, {"OID": "IT.DM.STUDYID", "Name": "STUDYID", "DataType": "text", "SASFieldName": "STUDYID", "Length": 7, "Description": {"TranslatedText": [{"lang": "en", "_content": "Study Identifier"}]}, "Origin": [{"Type": "Protocol", "Source": "Sponsor"}]}, {"OID": "IT.DM.DOMAIN", "Name": "DOMAIN", "DataType": "text", "SASFieldName": "DOMAIN", "Length": 2, "Description": {"TranslatedText": [{"lang": "en", "_content": "Domain Abbreviation"}]}, "CodeListRef": {"CodeListOID": "CL.DM.DOMAIN"}, "Origin": [{"Type": "Assigned", "Source": "Sponsor"}]}, {"OID": "IT.DM.USUBJID", "Name": "USUBJID", "DataType": "text", "SASFieldName": "USUBJID", "Length": 14, "Description": {"TranslatedText": [{"lang": "en", "_content": "Unique Subject Identifier"}]}, "Origin": [{"Type": "Derived", "Source": "Sponsor"}]}, {"OID": "IT.DM.SUBJID", "Name": "SUBJID", "DataType": "text", "SASFieldName": "SUBJID", "Length": 6, "Description": {"TranslatedText": [{"lang": "en", "_content": "Subject Identifier for the Study"}]}, "Origin": [{"Type": "Collected", "Source": "Investigator", "DocumentRef": [{"leafID": "LF.blankcrf", "PDFPageRef": [{"PageRefs": "3", "Type": "PhysicalRef"}]}]}]}, {"OID": "IT.DM.RFSTDTC", "Name": "RFSTDTC", "DataType": "date", "SASFieldName": "RFSTDTC", "Description": {"TranslatedText": [{"lang": "en", "_content": "Subject Reference Start Date/Time"}]}, "Origin": [{"Type": "Derived", "Source": "Investigator"}]}, {"OID": "IT.DM.RFENDTC", "Name": "RFENDTC", "DataType": "date", "SASFieldName": "RFENDTC", "Description": {"TranslatedText": [{"lang": "en", "_content": "Subject Reference End Date/Time"}]}, "Origin": [{"Type": "Derived", "Source": "Investigator"}]}, {"OID": "IT.DM.SITEID", "Name": "SITEID", "DataType": "text", "SASFieldName": "SITEID", "Length": 3, "Description": {"TranslatedText": [{"lang": "en", "_content": "Study Site Identifier"}]}, "Origin": [{"Type": "Collected", "Source": "Investigator", "DocumentRef": [{"leafID": "LF.blankcrf", "PDFPageRef": [{"PageRefs": "3", "Type": "PhysicalRef"}]}]}]}, {"OID": "IT.DM.BRTHDTC", "Name": "BRTHDTC", "DataType": "date", "SASFieldName": "BRTHDTC", "Description": {"TranslatedText": [{"lang": "en", "_content": "Date/Time of Birth"}]}, "Origin": [{"Type": "Collected", "Source": "Investigator", "DocumentRef": [{"leafID": "LF.blankcrf", "PDFPageRef": [{"PageRefs": "6", "Type": "PhysicalRef"}]}]}]}, {"OID": "IT.DM.AGE", "Name": "AGE", "DataType": "integer", "SASFieldName": "AGE", "Length": 2, "Description": {"TranslatedText": [{"lang": "en", "_content": "Age"}]}, "Origin": [{"Type": "Derived", "Source": "Sponsor"}]}, {"OID": "IT.DM.AGEU", "Name": "AGEU", "DataType": "text", "SASFieldName": "AGEU", "Length": 5, "CommentOID": "COM.AGEU", "Description": {"TranslatedText": [{"lang": "en", "_content": "Age Units"}]}, "Origin": [{"Type": "Assigned", "Source": "Sponsor"}]}, {"OID": "IT.DM.SEX", "Name": "SEX", "DataType": "text", "SASFieldName": "SEX", "Length": 1, "Description": {"TranslatedText": [{"lang": "en", "_content": "Sex"}]}, "CodeListRef": {"CodeListOID": "CL.SEX"}, "Origin": [{"Type": "Collected", "Source": "Investigator", "DocumentRef": [{"leafID": "LF.blankcrf", "PDFPageRef": [{"PageRefs": "6", "Type": "PhysicalRef"}]}]}]}, {"OID": "IT.DM.RACE", "Name": "RACE", "DataType": "text", "SASFieldName": "RACE", "Length": 40, "Description": {"TranslatedText": [{"lang": "en", "_content": "Race"}]}, "CodeListRef": {"CodeListOID": "CL.RACE"}, "Origin": [{"Type": "Collected", "Source": "Investigator", "DocumentRef": [{"leafID": "LF.blankcrf", "PDFPageRef": [{"PageRefs": "6", "Type": "PhysicalRef"}]}]}]}, {"OID": "IT.DM.ETHNIC", "Name": "ETHNIC", "DataType": "text", "SASFieldName": "ETHNIC", "Length": 22, "Description": {"TranslatedText": [{"lang": "en", "_content": "Ethnicity"}]}, "CodeListRef": {"CodeListOID": "CL.ETHNIC"}, "Origin": [{"Type": "Collected", "Source": "Investigator", "DocumentRef": [{"leafID": "LF.blankcrf", "PDFPageRef": [{"PageRefs": "6", "Type": "PhysicalRef"}]}]}]}, {"OID": "IT.DM.ARMCD", "Name": "ARMCD", "DataType": "text", "SASFieldName": "ARMCD", "Length": 8, "CommentOID": "COM.ARMCD", "Description": {"TranslatedText": [{"lang": "en", "_content": "Planned Arm Code"}]}, "CodeListRef": {"CodeListOID": "CL.ARMCD"}, "Origin": [{"Type": "Assigned", "Source": "Sponsor"}]}, {"OID": "IT.DM.ARM", "Name": "ARM", "DataType": "text", "SASFieldName": "ARM", "Length": 20, "CommentOID": "COM.ARM", "Description": {"TranslatedText": [{"lang": "en", "_content": "Description of Planned Arm"}]}, "CodeListRef": {"CodeListOID": "CL.ARM"}, "Origin": [{"Type": "Assigned", "Source": "Sponsor"}]}, {"OID": "IT.DM.COUNTRY", "Name": "COUNTRY", "DataType": "text", "SASFieldName": "COUNTRY", "Length": 3, "Description": {"TranslatedText": [{"lang": "en", "_content": "Country"}]}, "CodeListRef": {"CodeListOID": "CL.ISO3166"}, "Origin": [{"Type": "Assigned", "Source": "Sponsor"}]}, {"OID": "IT.DS.STUDYID", "Name": "STUDYID", "DataType": "text", "SASFieldName": "STUDYID", "Length": 7, "Description": {"TranslatedText": [{"lang": "en", "_content": "Study Identifier"}]}, "Origin": [{"Type": "Protocol", "Source": "Sponsor"}]}, {"OID": "IT.DS.DOMAIN", "Name": "DOMAIN", "DataType": "text", "SASFieldName": "DOMAIN", "Length": 2, "Description": {"TranslatedText": [{"lang": "en", "_content": "Domain Abbreviation"}]}, "CodeListRef": {"CodeListOID": "CL.DS.DOMAIN"}, "Origin": [{"Type": "Assigned", "Source": "Sponsor"}]}, {"OID": "IT.DS.USUBJID", "Name": "USUBJID", "DataType": "text", "SASFieldName": "USUBJID", "Length": 14, "Description": {"TranslatedText": [{"lang": "en", "_content": "Unique Subject Identifier"}]}, "Origin": [{"Type": "Derived", "Source": "Sponsor"}]}, {"OID": "IT.DS.DSSEQ", "Name": "DSSEQ", "DataType": "integer", "SASFieldName": "DSSEQ", "Length": 1, "Description": {"TranslatedText": [{"lang": "en", "_content": "Sequence Number"}]}, "Origin": [{"Type": "Derived", "Source": "Sponsor"}]}, {"OID": "IT.DS.DSTERM", "Name": "DSTERM", "DataType": "text", "SASFieldName": "DSTERM", "Length": 34, "Description": {"TranslatedText": [{"lang": "en", "_content": "Reported Term for the Disposition Event"}]}, "CodeListRef": {"CodeListOID": "CL.TREASFF"}, "Origin": [{"Type": "Collected", "Source": "Investigator", "DocumentRef": [{"leafID": "LF.blankcrf", "PDFPageRef": [{"PageRefs": "6 16 18", "Type": "PhysicalRef"}]}]}]}, {"OID": "IT.DS.DSDECOD", "Name": "DSDECOD", "DataType": "text", "SASFieldName": "DSDECOD", "Length": 21, "CommentOID": "COM.DSDECOD", "Description": {"TranslatedText": [{"lang": "en", "_content": "Standardized Disposition Term"}]}, "CodeListRef": {"CodeListOID": "CL.NCOMPLT"}, "Origin": [{"Type": "Collected", "Source": "Investigator", "DocumentRef": [{"leafID": "LF.blankcrf", "PDFPageRef": [{"PageRefs": "6 16 18", "Type": "PhysicalRef"}]}]}]}, {"OID": "IT.DS.DSCAT", "Name": "DSCAT", "DataType": "text", "SASFieldName": "DSCAT", "Length": 18, "Description": {"TranslatedText": [{"lang": "en", "_content": "Category for Disposition Event"}]}, "CodeListRef": {"CodeListOID": "CL.DSCAT"}, "Origin": [{"Type": "Assigned", "Source": "Sponsor"}]}, {"OID": "IT.DS.EPOCH", "Name": "EPOCH", "DataType": "text", "SASFieldName": "EPOCH", "Length": 9, "Description": {"TranslatedText": [{"lang": "en", "_content": "Epoch"}]}, "CodeListRef": {"CodeListOID": "CL.EPOCH"}, "Origin": [{"Type": "Assigned", "Source": "Sponsor"}]}, {"OID": "IT.DS.DSSTDTC", "Name": "DSSTDTC", "DataType": "date", "SASFieldName": "DSSTDTC", "Description": {"TranslatedText": [{"lang": "en", "_content": "Start Date/Time of Disposition Event"}]}, "Origin": [{"Type": "Collected", "Source": "Investigator", "DocumentRef": [{"leafID": "LF.blankcrf", "PDFPageRef": [{"PageRefs": "6 16 18", "Type": "PhysicalRef"}]}]}]}, {"OID": "IT.DS.DSSTDY", "Name": "DSSTDY", "DataType": "integer", "SASFieldName": "DSSTDY", "Length": 3, "Description": {"TranslatedText": [{"lang": "en", "_content": "Study Day of Start of Disposition Event"}]}, "Origin": [{"Type": "Derived", "Source": "Sponsor"}]}, {"OID": "IT.EG.STUDYID", "Name": "STUDYID", "DataType": "text", "SASFieldName": "STUDYID", "Length": 7, "Description": {"TranslatedText": [{"lang": "en", "_content": "Study Identifier"}]}, "Origin": [{"Type": "Protocol", "Source": "Sponsor"}]}, {"OID": "IT.EG.DOMAIN", "Name": "DOMAIN", "DataType": "text", "SASFieldName": "DOMAIN", "Length": 2, "Description": {"TranslatedText": [{"lang": "en", "_content": "Domain Abbreviation"}]}, "CodeListRef": {"CodeListOID": "CL.EG.DOMAIN"}, "Origin": [{"Type": "Assigned", "Source": "Sponsor"}]}, {"OID": "IT.EG.USUBJID", "Name": "USUBJID", "DataType": "text", "SASFieldName": "USUBJID", "Length": 14, "Description": {"TranslatedText": [{"lang": "en", "_content": "Unique Subject Identifier"}]}, "Origin": [{"Type": "Derived", "Source": "Sponsor"}]}, {"OID": "IT.EG.EGSEQ", "Name": "EGSEQ", "DataType": "integer", "SASFieldName": "EGSEQ", "Length": 2, "Description": {"TranslatedText": [{"lang": "en", "_content": "Sequence Number"}]}, "Origin": [{"Type": "Derived", "Source": "Sponsor"}]}, {"OID": "IT.EG.EGSPID", "Name": "EGSPID", "DataType": "text", "SASFieldName": "EGSPID", "Length": 6, "CommentOID": "COM.EGSPID", "Description": {"TranslatedText": [{"lang": "en", "_content": "Sponsor-Defined Identifier"}]}, "Origin": [{"Type": "Assigned", "Source": "Sponsor"}]}, {"OID": "IT.EG.EGTESTCD", "Name": "EGTESTCD", "DataType": "text", "SASFieldName": "EGTESTCD", "Length": 6, "Description": {"TranslatedText": [{"lang": "en", "_content": "ECG Test or Examination Short Name"}]}, "CodeListRef": {"CodeListOID": "CL.EGTESTCD"}, "Origin": [{"Type": "Assigned", "Source": "Sponsor"}]}, {"OID": "IT.EG.EGTEST", "Name": "EGTEST", "DataType": "text", "SASFieldName": "EGTEST", "Length": 40, "Description": {"TranslatedText": [{"lang": "en", "_content": "ECG Test or Examination Name"}]}, "CodeListRef": {"CodeListOID": "CL.EGTEST"}, "Origin": [{"Type": "Collected", "Source": "Investigator", "DocumentRef": [{"leafID": "LF.blankcrf", "PDFPageRef": [{"PageRefs": "12", "Type": "PhysicalRef"}]}]}]}, {"OID": "IT.EG.EGPOS", "Name": "EGPOS", "DataType": "text", "SASFieldName": "EGPOS", "Length": 6, "CommentOID": "COM.EGPOS", "Description": {"TranslatedText": [{"lang": "en", "_content": "ECG Position of Subject"}]}, "Origin": [{"Type": "Protocol", "Source": "Sponsor"}]}, {"OID": "IT.EG.EGORRES", "Name": "EGORRES", "DataType": "text", "SASFieldName": "EGORRES", "Length": 15, "Description": {"TranslatedText": [{"lang": "en", "_content": "Result or Finding in Original Units"}]}, "Origin": [{"Type": "Collected", "Source": "Investigator", "DocumentRef": [{"leafID": "LF.blankcrf", "PDFPageRef": [{"PageRefs": "12", "Type": "PhysicalRef"}]}]}], "ValueListRef": {"ValueListOID": "VL.EG.EGORRES"}}, {"OID": "IT.EG.EGORRESU", "Name": "EGORRESU", "DataType": "text", "SASFieldName": "EGORRESU", "Length": 4, "Description": {"TranslatedText": [{"lang": "en", "_content": "Original Units"}]}, "CodeListRef": {"CodeListOID": "CL.EGRESU"}, "Origin": [{"Type": "Collected", "Source": "Investigator", "DocumentRef": [{"leafID": "LF.blankcrf", "PDFPageRef": [{"PageRefs": "12", "Type": "PhysicalRef"}]}]}]}, {"OID": "IT.EG.EGSTRESC", "Name": "EGSTRESC", "DataType": "text", "SASFieldName": "EGSTRESC", "Length": 15, "Description": {"TranslatedText": [{"lang": "en", "_content": "Character Result/Finding in Std Format"}]}, "Origin": [{"Type": "Derived", "Source": "Sponsor"}], "ValueListRef": {"ValueListOID": "VL.EG.EGSTRESC"}}, {"OID": "IT.EG.EGSTRESN", "Name": "EGSTRESN", "DataType": "float", "SASFieldName": "EGSTRESN", "Length": 5, "SignificantDigits": 1, "DisplayFormat": "5.1", "Description": {"TranslatedText": [{"lang": "en", "_content": "Numeric Result/Finding in Standard Units"}]}, "Origin": [{"Type": "Derived", "Source": "Sponsor"}]}, {"OID": "IT.EG.EGSTRESU", "Name": "EGSTRESU", "DataType": "text", "SASFieldName": "EGSTRESU", "Length": 9, "Description": {"TranslatedText": [{"lang": "en", "_content": "Standard Units"}]}, "CodeListRef": {"CodeListOID": "CL.EGRESU"}, "Origin": [{"Type": "Assigned", "Source": "Sponsor"}]}, {"OID": "IT.EG.EGBLFL", "Name": "EGBLFL", "DataType": "text", "SASFieldName": "EGBLFL", "Length": 1, "Description": {"TranslatedText": [{"lang": "en", "_content": "Baseline Flag"}]}, "CodeListRef": {"CodeListOID": "CL.NY"}, "Origin": [{"Type": "Derived", "Source": "Sponsor"}]}, {"OID": "IT.EG.EGDRVFL", "Name": "EGDRVFL", "DataType": "text", "SASFieldName": "EGDRVFL", "Length": 1, "Description": {"TranslatedText": [{"lang": "en", "_content": "Derived Flag"}]}, "CodeListRef": {"CodeListOID": "CL.NY"}, "Origin": [{"Type": "Derived", "Source": "Sponsor"}]}, {"OID": "IT.EG.EGEVAL", "Name": "EGEVAL", "DataType": "text", "SASFieldName": "EGEVAL", "Length": 12, "CommentOID": "COM.EGEVAL", "Description": {"TranslatedText": [{"lang": "en", "_content": "Evaluator"}]}, "Origin": [{"Type": "Assigned", "Source": "Sponsor"}]}, {"OID": "IT.EG.VISITNUM", "Name": "VISITNUM", "DataType": "integer", "SASFieldName": "VISITNUM", "Length": 2, "CommentOID": "COM.EG.VISITNUM", "Description": {"TranslatedText": [{"lang": "en", "_content": "Visit Number"}]}, "Origin": [{"Type": "Assigned", "Source": "Sponsor"}]}, {"OID": "IT.EG.VISIT", "Name": "VISIT", "DataType": "text", "SASFieldName": "VISIT", "Length": 7, "Description": {"TranslatedText": [{"lang": "en", "_content": "Visit Name"}]}, "Origin": [{"Type": "Assigned", "Source": "Sponsor"}]}, {"OID": "IT.EG.VISITDY", "Name": "VISITDY", "DataType": "integer", "SASFieldName": "VISITDY", "Length": 3, "Description": {"TranslatedText": [{"lang": "en", "_content": "Planned Study Day of Visit"}]}, "Origin": [{"Type": "Protocol", "Source": "Sponsor"}]}, {"OID": "IT.EG.EGDTC", "Name": "EGDTC", "DataType": "date", "SASFieldName": "EGDTC", "Description": {"TranslatedText": [{"lang": "en", "_content": "Date/Time of ECG"}]}, "Origin": [{"Type": "Collected", "Source": "Investigator", "DocumentRef": [{"leafID": "LF.blankcrf", "PDFPageRef": [{"PageRefs": "12", "Type": "PhysicalRef"}]}]}]}, {"OID": "IT.EG.EGDY", "Name": "EGDY", "DataType": "integer", "SASFieldName": "EGDY", "Length": 3, "Description": {"TranslatedText": [{"lang": "en", "_content": "Study Day of ECG"}]}, "Origin": [{"Type": "Derived", "Source": "Sponsor"}]}, {"OID": "IT.EX.STUDYID", "Name": "STUDYID", "DataType": "text", "SASFieldName": "STUDYID", "Length": 7, "Description": {"TranslatedText": [{"lang": "en", "_content": "Study Identifier"}]}, "Origin": [{"Type": "Protocol", "Source": "Sponsor"}]}, {"OID": "IT.EX.DOMAIN", "Name": "DOMAIN", "DataType": "text", "SASFieldName": "DOMAIN", "Length": 2, "Description": {"TranslatedText": [{"lang": "en", "_content": "Domain Abbreviation"}]}, "CodeListRef": {"CodeListOID": "CL.EX.DOMAIN"}, "Origin": [{"Type": "Assigned", "Source": "Sponsor"}]}, {"OID": "IT.EX.USUBJID", "Name": "USUBJID", "DataType": "text", "SASFieldName": "USUBJID", "Length": 14, "Description": {"TranslatedText": [{"lang": "en", "_content": "Unique Subject Identifier"}]}, "Origin": [{"Type": "Derived", "Source": "Sponsor"}]}, {"OID": "IT.EX.EXSEQ", "Name": "EXSEQ", "DataType": "integer", "SASFieldName": "EXSEQ", "Length": 1, "Description": {"TranslatedText": [{"lang": "en", "_content": "Sequence Number"}]}, "Origin": [{"Type": "Derived", "Source": "Sponsor"}]}, {"OID": "IT.EX.EXTRT", "Name": "EXTRT", "DataType": "text", "SASFieldName": "EXTRT", "Length": 20, "Description": {"TranslatedText": [{"lang": "en", "_content": "Name of Actual Treatment"}]}, "CodeListRef": {"CodeListOID": "CL.EXTRT"}, "Origin": [{"Type": "Derived", "Source": "Sponsor"}]}, {"OID": "IT.EX.EXDOSE", "Name": "EXDOSE", "DataType": "integer", "SASFieldName": "EXDOSE", "Length": 2, "Description": {"TranslatedText": [{"lang": "en", "_content": "Dose per Administration"}]}, "Origin": [{"Type": "Derived", "Source": "Sponsor"}]}, {"OID": "IT.EX.EXDOSU", "Name": "EXDOSU", "DataType": "text", "SASFieldName": "EXDOSU", "Length": 2, "Description": {"TranslatedText": [{"lang": "en", "_content": "Dose Units"}]}, "Origin": [{"Type": "Derived", "Source": "Sponsor"}]}, {"OID": "IT.EX.EXDOSFRM", "Name": "EXDOSFRM", "DataType": "text", "SASFieldName": "EXDOSFRM", "Length": 7, "Description": {"TranslatedText": [{"lang": "en", "_content": "Dose Form"}]}, "CodeListRef": {"CodeListOID": "CL.FRM"}, "Origin": [{"Type": "Collected", "Source": "Investigator", "DocumentRef": [{"leafID": "LF.blankcrf", "PDFPageRef": [{"PageRefs": "20", "Type": "PhysicalRef"}]}]}]}, {"OID": "IT.EX.EXSTDTC", "Name": "EXSTDTC", "DataType": "date", "SASFieldName": "EXSTDTC", "Description": {"TranslatedText": [{"lang": "en", "_content": "Start Date/Time of Treatment"}]}, "Origin": [{"Type": "Collected", "Source": "Investigator", "DocumentRef": [{"leafID": "LF.blankcrf", "PDFPageRef": [{"PageRefs": "20", "Type": "PhysicalRef"}]}]}]}, {"OID": "IT.EX.EXENDTC", "Name": "EXENDTC", "DataType": "date", "SASFieldName": "EXENDTC", "Description": {"TranslatedText": [{"lang": "en", "_content": "End Date/Time of Treatment"}]}, "Origin": [{"Type": "Collected", "Source": "Investigator", "DocumentRef": [{"leafID": "LF.blankcrf", "PDFPageRef": [{"PageRefs": "20", "Type": "PhysicalRef"}]}]}]}, {"OID": "IT.EX.EXSTDY", "Name": "EXSTDY", "DataType": "integer", "SASFieldName": "EXSTDY", "Length": 2, "Description": {"TranslatedText": [{"lang": "en", "_content": "Study Day of Start of Treatment"}]}, "Origin": [{"Type": "Derived", "Source": "Sponsor"}]}, {"OID": "IT.EX.EXENDY", "Name": "EXENDY", "DataType": "integer", "SASFieldName": "EXENDY", "Length": 2, "Description": {"TranslatedText": [{"lang": "en", "_content": "Study Day of End of Treatment"}]}, "Origin": [{"Type": "Derived", "Source": "Sponsor"}]}, {"OID": "IT.IE.STUDYID", "Name": "STUDYID", "DataType": "text", "SASFieldName": "STUDYID", "Length": 7, "Description": {"TranslatedText": [{"lang": "en", "_content": "Study Identifier"}]}, "Origin": [{"Type": "Protocol", "Source": "Sponsor"}]}, {"OID": "IT.IE.DOMAIN", "Name": "DOMAIN", "DataType": "text", "SASFieldName": "DOMAIN", "Length": 2, "Description": {"TranslatedText": [{"lang": "en", "_content": "Domain Abbreviation"}]}, "CodeListRef": {"CodeListOID": "CL.IE.DOMAIN"}, "Origin": [{"Type": "Assigned", "Source": "Sponsor"}]}, {"OID": "IT.IE.USUBJID", "Name": "USUBJID", "DataType": "text", "SASFieldName": "USUBJID", "Length": 14, "Description": {"TranslatedText": [{"lang": "en", "_content": "Unique Subject Identifier"}]}, "Origin": [{"Type": "Derived", "Source": "Sponsor"}]}, {"OID": "IT.IE.IESEQ", "Name": "IESEQ", "DataType": "integer", "SASFieldName": "IESEQ", "Length": 1, "Description": {"TranslatedText": [{"lang": "en", "_content": "Sequence Number"}]}, "Origin": [{"Type": "Derived", "Source": "Sponsor"}]}, {"OID": "IT.IE.IETESTCD", "Name": "IETESTCD", "DataType": "text", "SASFieldName": "IETESTCD", "Length": 6, "Description": {"TranslatedText": [{"lang": "en", "_content": "Inclusion/Exclusion Criterion Short Name"}]}, "CodeListRef": {"CodeListOID": "CL.IETESTCD"}, "Origin": [{"Type": "Assigned", "Source": "Sponsor"}]}, {"OID": "IT.IE.IETEST", "Name": "IETEST", "DataType": "text", "SASFieldName": "IETEST", "Length": 54, "Description": {"TranslatedText": [{"lang": "en", "_content": "Inclusion/Exclusion Criterion"}]}, "CodeListRef": {"CodeListOID": "CL.IETEST"}, "Origin": [{"Type": "Collected", "Source": "Investigator", "DocumentRef": [{"leafID": "LF.blankcrf", "PDFPageRef": [{"PageRefs": "4 5", "Type": "PhysicalRef"}]}]}]}, {"OID": "IT.IE.IECAT", "Name": "IECAT", "DataType": "text", "SASFieldName": "IECAT", "Length": 9, "Description": {"TranslatedText": [{"lang": "en", "_content": "Inclusion/Exclusion Category"}]}, "Origin": [{"Type": "Collected", "Source": "Investigator", "DocumentRef": [{"leafID": "LF.blankcrf", "PDFPageRef": [{"PageRefs": "4 5", "Type": "PhysicalRef"}]}]}]}, {"OID": "IT.IE.IEORRES", "Name": "IEORRES", "DataType": "text", "SASFieldName": "IEORRES", "Length": 1, "Description": {"TranslatedText": [{"lang": "en", "_content": "I/E Criterion Original Result"}]}, "Origin": [{"Type": "Collected", "Source": "Investigator", "DocumentRef": [{"leafID": "LF.blankcrf", "PDFPageRef": [{"PageRefs": "4 5", "Type": "PhysicalRef"}]}]}], "ValueListRef": {"ValueListOID": "VL.IE.IEORRES"}}, {"OID": "IT.IE.IESTRESC", "Name": "IESTRESC", "DataType": "text", "SASFieldName": "IESTRESC", "Length": 1, "Description": {"TranslatedText": [{"lang": "en", "_content": "I/E Criterion Result in Std Format"}]}, "Origin": [{"Type": "Derived", "Source": "Sponsor"}]}, {"OID": "IT.IE.VISITNUM", "Name": "VISITNUM", "DataType": "integer", "SASFieldName": "VISITNUM", "Length": 1, "CommentOID": "COM.IE.VISITNUM", "Description": {"TranslatedText": [{"lang": "en", "_content": "Visit Number"}]}, "Origin": [{"Type": "Assigned", "Source": "Sponsor"}]}, {"OID": "IT.IE.VISIT", "Name": "VISIT", "DataType": "text", "SASFieldName": "VISIT", "Length": 6, "Description": {"TranslatedText": [{"lang": "en", "_content": "Visit Name"}]}, "Origin": [{"Type": "Assigned", "Source": "Sponsor"}]}, {"OID": "IT.IE.IEDTC", "Name": "IEDTC", "DataType": "date", "SASFieldName": "IEDTC", "Description": {"TranslatedText": [{"lang": "en", "_content": "Date/Time of Collection"}]}, "Origin": [{"Type": "Collected", "Source": "Investigator", "DocumentRef": [{"leafID": "LF.blankcrf", "PDFPageRef": [{"PageRefs": "4 5", "Type": "PhysicalRef"}]}]}]}, {"OID": "IT.LB.STUDYID", "Name": "STUDYID", "DataType": "text", "SASFieldName": "STUDYID", "Length": 7, "Description": {"TranslatedText": [{"lang": "en", "_content": "Study Identifier"}]}, "Origin": [{"Type": "Protocol", "Source": "Sponsor"}]}, {"OID": "IT.LB.DOMAIN", "Name": "DOMAIN", "DataType": "text", "SASFieldName": "DOMAIN", "Length": 2, "Description": {"TranslatedText": [{"lang": "en", "_content": "Domain Abbreviation"}]}, "CodeListRef": {"CodeListOID": "CL.LB.DOMAIN"}, "Origin": [{"Type": "Assigned", "Source": "Sponsor"}]}, {"OID": "IT.LB.USUBJID", "Name": "USUBJID", "DataType": "text", "SASFieldName": "USUBJID", "Length": 14, "Description": {"TranslatedText": [{"lang": "en", "_content": "Unique Subject Identifier"}]}, "Origin": [{"Type": "Derived", "Source": "Sponsor"}]}, {"OID": "IT.LB.LBSEQ", "Name": "LBSEQ", "DataType": "integer", "SASFieldName": "LBSEQ", "Length": 2, "Description": {"TranslatedText": [{"lang": "en", "_content": "Sequence Number"}]}, "Origin": [{"Type": "Derived", "Source": "Sponsor"}]}, {"OID": "IT.LB.LBREFID", "Name": "LBREFID", "DataType": "text", "SASFieldName": "LBREFID", "Length": 7, "CommentOID": "COM.LBREFID", "Description": {"TranslatedText": [{"lang": "en", "_content": "Specimen ID"}]}, "Origin": [{"Type": "Collected", "Source": "Vendor"}]}, {"OID": "IT.LB.LBTESTCD", "Name": "LBTESTCD", "DataType": "text", "SASFieldName": "LBTESTCD", "Length": 7, "Description": {"TranslatedText": [{"lang": "en", "_content": "Lab Test or Examination Short Name"}]}, "CodeListRef": {"CodeListOID": "CL.LBTESTCD"}, "Origin": [{"Type": "Assigned", "Source": "Sponsor"}]}, {"OID": "IT.LB.LBTEST", "Name": "LBTEST", "DataType": "text", "SASFieldName": "LBTEST", "Length": 22, "Description": {"TranslatedText": [{"lang": "en", "_content": "Lab Test or Examination Name"}]}, "CodeListRef": {"CodeListOID": "CL.LBTEST"}, "Origin": [{"Type": "Collected", "Source": "Vendor"}]}, {"OID": "IT.LB.LBCAT", "Name": "LBCAT", "DataType": "text", "SASFieldName": "LBCAT", "Length": 10, "Description": {"TranslatedText": [{"lang": "en", "_content": "Category for Lab Test"}]}, "Origin": [{"Type": "Collected", "Source": "Vendor"}]}, {"OID": "IT.LB.LBORRES", "Name": "LBORRES", "DataType": "text", "SASFieldName": "LBORRES", "Length": 8, "Description": {"TranslatedText": [{"lang": "en", "_content": "Result or Finding in Original Units"}]}, "Origin": [{"Type": "Collected", "Source": "Vendor"}], "ValueListRef": {"ValueListOID": "VL.LB.LBORRES"}}, {"OID": "IT.LB.LBORRESU", "Name": "LBORRESU", "DataType": "text", "SASFieldName": "LBORRESU", "Length": 7, "Description": {"TranslatedText": [{"lang": "en", "_content": "Original Units"}]}, "CodeListRef": {"CodeListOID": "CL.LBRESU"}, "Origin": [{"Type": "Collected", "Source": "Vendor"}]}, {"OID": "IT.LB.LBORNRLO", "Name": "LBORNRLO", "DataType": "text", "SASFieldName": "LBORNRLO", "Length": 8, "Description": {"TranslatedText": [{"lang": "en", "_content": "Reference Range Lower Limit in Orig Unit"}]}, "Origin": [{"Type": "Collected", "Source": "Vendor"}]}, {"OID": "IT.LB.LBORNRHI", "Name": "LBORNRHI", "DataType": "text", "SASFieldName": "LBORNRHI", "Length": 8, "Description": {"TranslatedText": [{"lang": "en", "_content": "Reference Range Upper Limit in Orig Unit"}]}, "Origin": [{"Type": "Collected", "Source": "Vendor"}]}, {"OID": "IT.LB.LBSTRESC", "Name": "LBSTRESC", "DataType": "text", "SASFieldName": "LBSTRESC", "Length": 8, "Description": {"TranslatedText": [{"lang": "en", "_content": "Character Result/Finding in Std Format"}]}, "Origin": [{"Type": "Collected", "Source": "Vendor"}]}, {"OID": "IT.LB.LBSTRESN", "Name": "LBSTRESN", "DataType": "float", "SASFieldName": "LBSTRESN", "Length": 5, "SignificantDigits": 2, "DisplayFormat": "5.2", "Description": {"TranslatedText": [{"lang": "en", "_content": "Numeric Result/Finding in Standard Units"}]}, "Origin": [{"Type": "Collected", "Source": "Vendor"}]}, {"OID": "IT.LB.LBSTRESU", "Name": "LBSTRESU", "DataType": "text", "SASFieldName": "LBSTRESU", "Length": 7, "Description": {"TranslatedText": [{"lang": "en", "_content": "Standard Units"}]}, "Origin": [{"Type": "Collected", "Source": "Vendor"}]}, {"OID": "IT.LB.LBSTNRLO", "Name": "LBSTNRLO", "DataType": "float", "SASFieldName": "LBSTNRLO", "Length": 4, "SignificantDigits": 2, "DisplayFormat": "4.2", "Description": {"TranslatedText": [{"lang": "en", "_content": "Reference Range Lower Limit-Std Units"}]}, "Origin": [{"Type": "Collected", "Source": "Vendor"}]}, {"OID": "IT.LB.LBSTNRHI", "Name": "LBSTNRHI", "DataType": "float", "SASFieldName": "LBSTNRHI", "Length": 4, "SignificantDigits": 2, "DisplayFormat": "4.2", "Description": {"TranslatedText": [{"lang": "en", "_content": "Reference Range Upper Limit-Std Units"}]}, "Origin": [{"Type": "Collected", "Source": "Vendor"}]}, {"OID": "IT.LB.LBSTNRC", "Name": "LBSTNRC", "DataType": "text", "SASFieldName": "LBSTNRC", "Length": 19, "Description": {"TranslatedText": [{"lang": "en", "_content": "Reference Range for Char Rslt-Std Units"}]}, "Origin": [{"Type": "Collected", "Source": "Vendor"}]}, {"OID": "IT.LB.LBNRIND", "Name": "LBNRIND", "DataType": "text", "SASFieldName": "LBNRIND", "Length": 20, "Description": {"TranslatedText": [{"lang": "en", "_content": "Reference Range Indicator"}]}, "CodeListRef": {"CodeListOID": "CL.NRIND"}, "Origin": [{"Type": "Derived", "Source": "Sponsor"}]}, {"OID": "IT.LB.LBSPEC", "Name": "LBSPEC", "DataType": "text", "SASFieldName": "LBSPEC", "Length": 5, "Description": {"TranslatedText": [{"lang": "en", "_content": "Specimen Type"}]}, "CodeListRef": {"CodeListOID": "CL.SPECTYPE"}, "Origin": [{"Type": "Collected", "Source": "Vendor"}]}, {"OID": "IT.LB.LBMETHOD", "Name": "LBMETHOD", "DataType": "text", "SASFieldName": "LBMETHOD", "Length": 8, "Description": {"TranslatedText": [{"lang": "en", "_content": "Method of Test or Examination"}]}, "CodeListRef": {"CodeListOID": "CL.METHOD"}, "Origin": [{"Type": "Collected", "Source": "Vendor"}]}, {"OID": "IT.LB.LBBLFL", "Name": "LBBLFL", "DataType": "text", "SASFieldName": "LBBLFL", "Length": 1, "Description": {"TranslatedText": [{"lang": "en", "_content": "Baseline Flag"}]}, "CodeListRef": {"CodeListOID": "CL.NY"}, "Origin": [{"Type": "Derived", "Source": "Sponsor"}]}, {"OID": "IT.LB.LBFAST", "Name": "LBFAST", "DataType": "text", "SASFieldName": "LBFAST", "Length": 1, "Description": {"TranslatedText": [{"lang": "en", "_content": "Fasting Status"}]}, "CodeListRef": {"CodeListOID": "CL.NY"}, "Origin": [{"Type": "Collected", "Source": "Vendor"}]}, {"OID": "IT.LB.VISITNUM", "Name": "VISITNUM", "DataType": "integer", "SASFieldName": "VISITNUM", "Length": 2, "Description": {"TranslatedText": [{"lang": "en", "_content": "Visit Number"}]}, "Origin": [{"Type": "Collected", "Source": "Vendor"}]}, {"OID": "IT.LB.VISIT", "Name": "VISIT", "DataType": "text", "SASFieldName": "VISIT", "Length": 7, "Description": {"TranslatedText": [{"lang": "en", "_content": "Visit Name"}]}, "Origin": [{"Type": "Collected", "Source": "Vendor"}]}, {"OID": "IT.LB.VISITDY", "Name": "VISITDY", "DataType": "integer", "SASFieldName": "VISITDY", "Length": 3, "Description": {"TranslatedText": [{"lang": "en", "_content": "Planned Study Day of Visit"}]}, "Origin": [{"Type": "Protocol", "Source": "Sponsor"}]}, {"OID": "IT.LB.LBDTC", "Name": "LBDTC", "DataType": "datetime", "SASFieldName": "LBDTC", "Description": {"TranslatedText": [{"lang": "en", "_content": "Date/Time of Specimen Collection"}]}, "Origin": [{"Type": "Collected", "Source": "Vendor"}]}, {"OID": "IT.LB.LBDY", "Name": "LBDY", "DataType": "integer", "SASFieldName": "LBDY", "Length": 3, "Description": {"TranslatedText": [{"lang": "en", "_content": "Study Day of Specimen Collection"}]}, "Origin": [{"Type": "Derived", "Source": "Sponsor"}]}, {"OID": "IT.MH.STUDYID", "Name": "STUDYID", "DataType": "text", "SASFieldName": "STUDYID", "Length": 7, "Description": {"TranslatedText": [{"lang": "en", "_content": "Study Identifier"}]}, "Origin": [{"Type": "Protocol", "Source": "Sponsor"}]}, {"OID": "IT.MH.DOMAIN", "Name": "DOMAIN", "DataType": "text", "SASFieldName": "DOMAIN", "Length": 2, "Description": {"TranslatedText": [{"lang": "en", "_content": "Domain Abbreviation"}]}, "CodeListRef": {"CodeListOID": "CL.MH.DOMAIN"}, "Origin": [{"Type": "Assigned", "Source": "Sponsor"}]}, {"OID": "IT.MH.USUBJID", "Name": "USUBJID", "DataType": "text", "SASFieldName": "USUBJID", "Length": 14, "Description": {"TranslatedText": [{"lang": "en", "_content": "Unique Subject Identifier"}]}, "Origin": [{"Type": "Derived", "Source": "Sponsor"}]}, {"OID": "IT.MH.MHSEQ", "Name": "MHSEQ", "DataType": "integer", "SASFieldName": "MHSEQ", "Length": 1, "Description": {"TranslatedText": [{"lang": "en", "_content": "Sequence Number"}]}, "Origin": [{"Type": "Derived", "Source": "Sponsor"}]}, {"OID": "IT.MH.MHTERM", "Name": "MHTERM", "DataType": "text", "SASFieldName": "MHTERM", "Length": 169, "Description": {"TranslatedText": [{"lang": "en", "_content": "Reported Term for the Medical History"}]}, "Origin": [{"Type": "Collected", "Source": "Investigator", "DocumentRef": [{"leafID": "LF.blankcrf", "PDFPageRef": [{"PageRefs": "7 8", "Type": "PhysicalRef"}]}]}]}, {"OID": "IT.MH.MHCAT", "Name": "MHCAT", "DataType": "text", "SASFieldName": "MHCAT", "Length": 28, "Description": {"TranslatedText": [{"lang": "en", "_content": "Category for Medical History"}]}, "CodeListRef": {"CodeListOID": "CL.MHCAT"}, "Origin": [{"Type": "Collected", "Source": "Investigator", "DocumentRef": [{"leafID": "LF.blankcrf", "PDFPageRef": [{"PageRefs": "7 8", "Type": "PhysicalRef"}]}]}]}, {"OID": "IT.MH.MHPRESP", "Name": "MHPRESP", "DataType": "text", "SASFieldName": "MHPRESP", "Length": 2, "Description": {"TranslatedText": [{"lang": "en", "_content": "Medical History Event Pre-Specified"}]}, "CodeListRef": {"CodeListOID": "CL.NY"}, "Origin": [{"Type": "Assigned", "Source": "Sponsor"}]}, {"OID": "IT.MH.MHOCCUR", "Name": "MHOCCUR", "DataType": "text", "SASFieldName": "MHOCCUR", "Length": 2, "Description": {"TranslatedText": [{"lang": "en", "_content": "Medical History Occurrence"}]}, "CodeListRef": {"CodeListOID": "CL.NY"}, "Origin": [{"Type": "Assigned", "Source": "Sponsor"}]}, {"OID": "IT.MH.MHBODSYS", "Name": "MHBODSYS", "DataType": "text", "SASFieldName": "MHBODSYS", "Length": 23, "CommentOID": "COM.MHBODSYS", "Description": {"TranslatedText": [{"lang": "en", "_content": "Body System or Organ Class"}]}, "CodeListRef": {"CodeListOID": "CL.MHBODSYS"}, "Origin": [{"Type": "Assigned", "Source": "Sponsor"}]}, {"OID": "IT.MH.MHDTC", "Name": "MHDTC", "DataType": "date", "SASFieldName": "MHDTC", "Description": {"TranslatedText": [{"lang": "en", "_content": "Date/Time of History Collection"}]}, "Origin": [{"Type": "Collected", "Source": "Investigator", "DocumentRef": [{"leafID": "LF.blankcrf", "PDFPageRef": [{"PageRefs": "7 8", "Type": "PhysicalRef"}]}]}]}, {"OID": "IT.MH.MHSTDTC", "Name": "MHSTDTC", "DataType": "date", "SASFieldName": "MHSTDTC", "Description": {"TranslatedText": [{"lang": "en", "_content": "Start Date/Time of Medical History Event"}]}, "Origin": [{"Type": "Collected", "Source": "Investigator", "DocumentRef": [{"leafID": "LF.blankcrf", "PDFPageRef": [{"PageRefs": "7 8", "Type": "PhysicalRef"}]}]}]}, {"OID": "IT.MH.MHENRF", "Name": "MHENRF", "DataType": "text", "SASFieldName": "MHENRF", "Length": 30, "CommentOID": "COM.MHENRF", "Description": {"TranslatedText": [{"lang": "en", "_content": "End Relative to Reference Period"}]}, "CodeListRef": {"CodeListOID": "CL.MHENRF"}, "Origin": [{"Type": "Collected", "Source": "Investigator", "DocumentRef": [{"leafID": "LF.blankcrf", "PDFPageRef": [{"PageRefs": "8", "Type": "PhysicalRef"}]}]}]}, {"OID": "IT.PE.STUDYID", "Name": "STUDYID", "DataType": "text", "SASFieldName": "STUDYID", "Length": 7, "Description": {"TranslatedText": [{"lang": "en", "_content": "Study Identifier"}]}, "Origin": [{"Type": "Protocol", "Source": "Sponsor"}]}, {"OID": "IT.PE.DOMAIN", "Name": "DOMAIN", "DataType": "text", "SASFieldName": "DOMAIN", "Length": 2, "Description": {"TranslatedText": [{"lang": "en", "_content": "Domain Abbreviation"}]}, "CodeListRef": {"CodeListOID": "CL.PE.DOMAIN"}, "Origin": [{"Type": "Assigned", "Source": "Sponsor"}]}, {"OID": "IT.PE.USUBJID", "Name": "USUBJID", "DataType": "text", "SASFieldName": "USUBJID", "Length": 14, "Description": {"TranslatedText": [{"lang": "en", "_content": "Unique Subject Identifier"}]}, "Origin": [{"Type": "Derived", "Source": "Sponsor"}]}, {"OID": "IT.PE.PESEQ", "Name": "PESEQ", "DataType": "integer", "SASFieldName": "PESEQ", "Length": 2, "Description": {"TranslatedText": [{"lang": "en", "_content": "Sequence Number"}]}, "Origin": [{"Type": "Derived", "Source": "Sponsor"}]}, {"OID": "IT.PE.PETESTCD", "Name": "PETESTCD", "DataType": "text", "SASFieldName": "PETESTCD", "Length": 4, "Description": {"TranslatedText": [{"lang": "en", "_content": "Body System Examined Short Name"}]}, "CodeListRef": {"CodeListOID": "CL.PETESTCD"}, "Origin": [{"Type": "Assigned", "Source": "Sponsor"}]}, {"OID": "IT.PE.PETEST", "Name": "PETEST", "DataType": "text", "SASFieldName": "PETEST", "Length": 29, "Description": {"TranslatedText": [{"lang": "en", "_content": "Body System Examined"}]}, "CodeListRef": {"CodeListOID": "CL.PETEST"}, "Origin": [{"Type": "Collected", "Source": "Investigator", "DocumentRef": [{"leafID": "LF.blankcrf", "PDFPageRef": [{"PageRefs": "10", "Type": "PhysicalRef"}]}]}]}, {"OID": "IT.PE.PEORRES", "Name": "PEORRES", "DataType": "text", "SASFieldName": "PEORRES", "Length": 36, "Description": {"TranslatedText": [{"lang": "en", "_content": "Verbatim Examination Finding"}]}, "Origin": [{"Type": "Collected", "Source": "Investigator", "DocumentRef": [{"leafID": "LF.blankcrf", "PDFPageRef": [{"PageRefs": "10", "Type": "PhysicalRef"}]}]}], "ValueListRef": {"ValueListOID": "VL.PE.PEORRES"}}, {"OID": "IT.PE.PESTRESC", "Name": "PESTRESC", "DataType": "text", "SASFieldName": "PESTRESC", "Length": 26, "Description": {"TranslatedText": [{"lang": "en", "_content": "Character Result/Finding in Std Format"}]}, "Origin": [{"Type": "Derived", "Source": "Sponsor"}]}, {"OID": "IT.PE.VISITNUM", "Name": "VISITNUM", "DataType": "integer", "SASFieldName": "VISITNUM", "Length": 2, "CommentOID": "COM.PE.VISITNUM", "Description": {"TranslatedText": [{"lang": "en", "_content": "Visit Number"}]}, "Origin": [{"Type": "Assigned", "Source": "Sponsor"}]}, {"OID": "IT.PE.VISIT", "Name": "VISIT", "DataType": "text", "SASFieldName": "VISIT", "Length": 7, "Description": {"TranslatedText": [{"lang": "en", "_content": "Visit Name"}]}, "Origin": [{"Type": "Assigned", "Source": "Sponsor"}]}, {"OID": "IT.PE.VISITDY", "Name": "VISITDY", "DataType": "integer", "SASFieldName": "VISITDY", "Length": 3, "Description": {"TranslatedText": [{"lang": "en", "_content": "Planned Study Day of Visit"}]}, "Origin": [{"Type": "Protocol", "Source": "Sponsor"}]}, {"OID": "IT.PE.PEDTC", "Name": "PEDTC", "DataType": "date", "SASFieldName": "PEDTC", "Description": {"TranslatedText": [{"lang": "en", "_content": "Date/Time of Examination"}]}, "Origin": [{"Type": "Collected", "Source": "Investigator", "DocumentRef": [{"leafID": "LF.blankcrf", "PDFPageRef": [{"PageRefs": "10", "Type": "PhysicalRef"}]}]}]}, {"OID": "IT.PE.PEDY", "Name": "PEDY", "DataType": "integer", "SASFieldName": "PEDY", "Length": 3, "Description": {"TranslatedText": [{"lang": "en", "_content": "Study Day of Examination"}]}, "Origin": [{"Type": "Derived", "Source": "Sponsor"}]}, {"OID": "IT.QSCG.STUDYID", "Name": "STUDYID", "DataType": "text", "SASFieldName": "STUDYID", "Length": 7, "Description": {"TranslatedText": [{"lang": "en", "_content": "Study Identifier"}]}, "Origin": [{"Type": "Protocol", "Source": "Sponsor"}]}, {"OID": "IT.QSCG.DOMAIN", "Name": "DOMAIN", "DataType": "text", "SASFieldName": "DOMAIN", "Length": 2, "Description": {"TranslatedText": [{"lang": "en", "_content": "Domain Abbreviation"}]}, "CodeListRef": {"CodeListOID": "CL.QS.DOMAIN"}, "Origin": [{"Type": "Assigned", "Source": "Sponsor"}]}, {"OID": "IT.QSCG.USUBJID", "Name": "USUBJID", "DataType": "text", "SASFieldName": "USUBJID", "Length": 14, "Description": {"TranslatedText": [{"lang": "en", "_content": "Unique Subject Identifier"}]}, "Origin": [{"Type": "Derived", "Source": "Sponsor"}]}, {"OID": "IT.QSCG.QSSEQ", "Name": "QSSEQ", "DataType": "integer", "SASFieldName": "QSSEQ", "Length": 3, "Description": {"TranslatedText": [{"lang": "en", "_content": "Sequence Number"}]}, "Origin": [{"Type": "Derived", "Source": "Sponsor"}]}, {"OID": "IT.QSCG.QSTESTCD", "Name": "QSTESTCD", "DataType": "text", "SASFieldName": "QSTESTCD", "Length": 7, "Description": {"TranslatedText": [{"lang": "en", "_content": "Question Short Name"}]}, "CodeListRef": {"CodeListOID": "CL.QSTESTCD"}, "Origin": [{"Type": "Assigned", "Source": "Sponsor"}]}, {"OID": "IT.QSCG.QSTEST", "Name": "QSTEST", "DataType": "text", "SASFieldName": "QSTEST", "Length": 37, "Description": {"TranslatedText": [{"lang": "en", "_content": "Question Name"}]}, "CodeListRef": {"CodeListOID": "CL.QSTEST"}, "Origin": [{"Type": "Collected", "Source": "Investigator", "DocumentRef": [{"leafID": "LF.blankcrf", "PDFPageRef": [{"PageRefs": "17", "Type": "PhysicalRef"}]}]}]}, {"OID": "IT.QSCG.QSCAT", "Name": "QSCAT", "DataType": "text", "SASFieldName": "QSCAT", "Length": 50, "Description": {"TranslatedText": [{"lang": "en", "_content": "Category of Question"}]}, "Origin": [{"Type": "Collected", "Source": "Investigator", "DocumentRef": [{"leafID": "LF.blankcrf", "PDFPageRef": [{"PageRefs": "17", "Type": "PhysicalRef"}]}]}]}, {"OID": "IT.QSCG.QSORRES", "Name": "QSORRES", "DataType": "text", "SASFieldName": "QSORRES", "Length": 20, "Description": {"TranslatedText": [{"lang": "en", "_content": "Finding in Original Units"}]}, "Origin": [{"Type": "Collected", "Source": "Investigator", "DocumentRef": [{"leafID": "LF.blankcrf", "PDFPageRef": [{"PageRefs": "17", "Type": "PhysicalRef"}]}]}]}, {"OID": "IT.QSCG.QSSTRESC", "Name": "QSSTRESC", "DataType": "text", "SASFieldName": "QSSTRESC", "Length": 2, "Description": {"TranslatedText": [{"lang": "en", "_content": "Character Result/Finding in Std Format"}]}, "Origin": [{"Type": "Derived", "Source": "Sponsor"}]}, {"OID": "IT.QSCG.QSSTRESN", "Name": "QSSTRESN", "DataType": "integer", "SASFieldName": "QSSTRESN", "Length": 2, "Description": {"TranslatedText": [{"lang": "en", "_content": "Numeric Finding in Standard Units"}]}, "Origin": [{"Type": "Derived", "Source": "Sponsor"}]}, {"OID": "IT.QSCG.VISITNUM", "Name": "VISITNUM", "DataType": "integer", "SASFieldName": "VISITNUM", "Length": 2, "CommentOID": "COM.QS.VISITNUM", "Description": {"TranslatedText": [{"lang": "en", "_content": "Visit Number"}]}, "Origin": [{"Type": "Assigned", "Source": "Sponsor"}]}, {"OID": "IT.QSCG.VISIT", "Name": "VISIT", "DataType": "text", "SASFieldName": "VISIT", "Length": 8, "Description": {"TranslatedText": [{"lang": "en", "_content": "Visit Name"}]}, "Origin": [{"Type": "Assigned", "Source": "Sponsor"}]}, {"OID": "IT.QSCG.VISITDY", "Name": "VISITDY", "DataType": "integer", "SASFieldName": "VISITDY", "Length": 3, "Description": {"TranslatedText": [{"lang": "en", "_content": "Planned Study Day of Visit"}]}, "Origin": [{"Type": "Protocol", "Source": "Sponsor"}]}, {"OID": "IT.QSCG.QSDTC", "Name": "QSDTC", "DataType": "date", "SASFieldName": "QSDTC", "Description": {"TranslatedText": [{"lang": "en", "_content": "Date/Time of Finding"}]}, "Origin": [{"Type": "Collected", "Source": "Investigator", "DocumentRef": [{"leafID": "LF.blankcrf", "PDFPageRef": [{"PageRefs": "17", "Type": "PhysicalRef"}]}]}]}, {"OID": "IT.QSCG.QSDY", "Name": "QSDY", "DataType": "integer", "SASFieldName": "QSDY", "Length": 3, "Description": {"TranslatedText": [{"lang": "en", "_content": "Study Day of Finding"}]}, "Origin": [{"Type": "Derived", "Source": "Sponsor"}]}, {"OID": "IT.QSCS.STUDYID", "Name": "STUDYID", "DataType": "text", "SASFieldName": "STUDYID", "Length": 7, "Description": {"TranslatedText": [{"lang": "en", "_content": "Study Identifier"}]}, "Origin": [{"Type": "Protocol", "Source": "Sponsor"}]}, {"OID": "IT.QSCS.DOMAIN", "Name": "DOMAIN", "DataType": "text", "SASFieldName": "DOMAIN", "Length": 2, "Description": {"TranslatedText": [{"lang": "en", "_content": "Domain Abbreviation"}]}, "CodeListRef": {"CodeListOID": "CL.QS.DOMAIN"}, "Origin": [{"Type": "Assigned", "Source": "Sponsor"}]}, {"OID": "IT.QSCS.USUBJID", "Name": "USUBJID", "DataType": "text", "SASFieldName": "USUBJID", "Length": 14, "Description": {"TranslatedText": [{"lang": "en", "_content": "Unique Subject Identifier"}]}, "Origin": [{"Type": "Derived", "Source": "Sponsor"}]}, {"OID": "IT.QSCS.QSSEQ", "Name": "QSSEQ", "DataType": "integer", "SASFieldName": "QSSEQ", "Length": 3, "Description": {"TranslatedText": [{"lang": "en", "_content": "Sequence Number"}]}, "Origin": [{"Type": "Derived", "Source": "Sponsor"}]}, {"OID": "IT.QSCS.QSTESTCD", "Name": "QSTESTCD", "DataType": "text", "SASFieldName": "QSTESTCD", "Length": 7, "Description": {"TranslatedText": [{"lang": "en", "_content": "Question Short Name"}]}, "CodeListRef": {"CodeListOID": "CL.QSTESTCD"}, "Origin": [{"Type": "Assigned", "Source": "Sponsor"}]}, {"OID": "IT.QSCS.QSTEST", "Name": "QSTEST", "DataType": "text", "SASFieldName": "QSTEST", "Length": 37, "Description": {"TranslatedText": [{"lang": "en", "_content": "Question Name"}]}, "CodeListRef": {"CodeListOID": "CL.QSTEST"}, "Origin": [{"Type": "Collected", "Source": "Investigator", "DocumentRef": [{"leafID": "LF.blankcrf", "PDFPageRef": [{"PageRefs": "17", "Type": "PhysicalRef"}]}]}]}, {"OID": "IT.QSCS.QSCAT", "Name": "QSCAT", "DataType": "text", "SASFieldName": "QSCAT", "Length": 50, "Description": {"TranslatedText": [{"lang": "en", "_content": "Category of Question"}]}, "Origin": [{"Type": "Collected", "Source": "Investigator", "DocumentRef": [{"leafID": "LF.blankcrf", "PDFPageRef": [{"PageRefs": "17", "Type": "PhysicalRef"}]}]}]}, {"OID": "IT.QSCS.QSSCAT", "Name": "QSSCAT", "DataType": "text", "SASFieldName": "QSSCAT", "Length": 40, "Description": {"TranslatedText": [{"lang": "en", "_content": "Subcategory for Question"}]}, "Origin": [{"Type": "Collected", "Source": "Investigator", "DocumentRef": [{"leafID": "LF.blankcrf", "PDFPageRef": [{"PageRefs": "14 15", "Type": "PhysicalRef"}]}]}]}, {"OID": "IT.QSCS.QSORRES", "Name": "QSORRES", "DataType": "text", "SASFieldName": "QSORRES", "Length": 20, "Description": {"TranslatedText": [{"lang": "en", "_content": "Finding in Original Units"}]}, "Origin": [{"Type": "Collected", "Source": "Investigator", "DocumentRef": [{"leafID": "LF.blankcrf", "PDFPageRef": [{"PageRefs": "17", "Type": "PhysicalRef"}]}]}]}, {"OID": "IT.QSCS.QSSTRESC", "Name": "QSSTRESC", "DataType": "text", "SASFieldName": "QSSTRESC", "Length": 2, "Description": {"TranslatedText": [{"lang": "en", "_content": "Character Result/Finding in Std Format"}]}, "Origin": [{"Type": "Derived", "Source": "Sponsor"}]}, {"OID": "IT.QSCS.QSSTRESN", "Name": "QSSTRESN", "DataType": "integer", "SASFieldName": "QSSTRESN", "Length": 2, "Description": {"TranslatedText": [{"lang": "en", "_content": "Numeric Finding in Standard Units"}]}, "Origin": [{"Type": "Derived", "Source": "Sponsor"}]}, {"OID": "IT.QSCS.QSBLFL", "Name": "QSBLFL", "DataType": "text", "SASFieldName": "QSBLFL", "Length": 1, "Description": {"TranslatedText": [{"lang": "en", "_content": "Baseline Flag"}]}, "CodeListRef": {"CodeListOID": "CL.NY"}, "Origin": [{"Type": "Derived", "Source": "Sponsor"}]}, {"OID": "IT.QSCS.VISITNUM", "Name": "VISITNUM", "DataType": "integer", "SASFieldName": "VISITNUM", "Length": 2, "CommentOID": "COM.QS.VISITNUM", "Description": {"TranslatedText": [{"lang": "en", "_content": "Visit Number"}]}, "Origin": [{"Type": "Assigned", "Source": "Sponsor"}]}, {"OID": "IT.QSCS.VISIT", "Name": "VISIT", "DataType": "text", "SASFieldName": "VISIT", "Length": 8, "Description": {"TranslatedText": [{"lang": "en", "_content": "Visit Name"}]}, "Origin": [{"Type": "Assigned", "Source": "Sponsor"}]}, {"OID": "IT.QSCS.VISITDY", "Name": "VISITDY", "DataType": "integer", "SASFieldName": "VISITDY", "Length": 3, "Description": {"TranslatedText": [{"lang": "en", "_content": "Planned Study Day of Visit"}]}, "Origin": [{"Type": "Protocol", "Source": "Sponsor"}]}, {"OID": "IT.QSCS.QSDTC", "Name": "QSDTC", "DataType": "date", "SASFieldName": "QSDTC", "Description": {"TranslatedText": [{"lang": "en", "_content": "Date/Time of Finding"}]}, "Origin": [{"Type": "Collected", "Source": "Investigator", "DocumentRef": [{"leafID": "LF.blankcrf", "PDFPageRef": [{"PageRefs": "17", "Type": "PhysicalRef"}]}]}]}, {"OID": "IT.QSCS.QSDY", "Name": "QSDY", "DataType": "integer", "SASFieldName": "QSDY", "Length": 3, "Description": {"TranslatedText": [{"lang": "en", "_content": "Study Day of Finding"}]}, "Origin": [{"Type": "Derived", "Source": "Sponsor"}]}, {"OID": "IT.QSCS.QSEVLINT", "Name": "QSEVLINT", "DataType": "text", "SASFieldName": "QSEVLINT", "Length": 20, "Description": {"TranslatedText": [{"lang": "en", "_content": "Evaluation Interval"}]}, "Origin": [{"Type": "Collected", "Source": "Investigator", "DocumentRef": [{"leafID": "LF.blankcrf", "PDFPageRef": [{"PageRefs": "14", "Type": "PhysicalRef"}]}]}]}, {"OID": "IT.QSMM.STUDYID", "Name": "STUDYID", "DataType": "text", "SASFieldName": "STUDYID", "Length": 7, "Description": {"TranslatedText": [{"lang": "en", "_content": "Study Identifier"}]}, "Origin": [{"Type": "Protocol", "Source": "Sponsor"}]}, {"OID": "IT.QSMM.DOMAIN", "Name": "DOMAIN", "DataType": "text", "SASFieldName": "DOMAIN", "Length": 2, "Description": {"TranslatedText": [{"lang": "en", "_content": "Domain Abbreviation"}]}, "CodeListRef": {"CodeListOID": "CL.QS.DOMAIN"}, "Origin": [{"Type": "Assigned", "Source": "Sponsor"}]}, {"OID": "IT.QSMM.USUBJID", "Name": "USUBJID", "DataType": "text", "SASFieldName": "USUBJID", "Length": 14, "Description": {"TranslatedText": [{"lang": "en", "_content": "Unique Subject Identifier"}]}, "Origin": [{"Type": "Derived", "Source": "Sponsor"}]}, {"OID": "IT.QSMM.QSSEQ", "Name": "QSSEQ", "DataType": "integer", "SASFieldName": "QSSEQ", "Length": 3, "Description": {"TranslatedText": [{"lang": "en", "_content": "Sequence Number"}]}, "Origin": [{"Type": "Derived", "Source": "Sponsor"}]}, {"OID": "IT.QSMM.QSTESTCD", "Name": "QSTESTCD", "DataType": "text", "SASFieldName": "QSTESTCD", "Length": 7, "Description": {"TranslatedText": [{"lang": "en", "_content": "Question Short Name"}]}, "CodeListRef": {"CodeListOID": "CL.QSTESTCD"}, "Origin": [{"Type": "Assigned", "Source": "Sponsor"}]}, {"OID": "IT.QSMM.QSTEST", "Name": "QSTEST", "DataType": "text", "SASFieldName": "QSTEST", "Length": 37, "Description": {"TranslatedText": [{"lang": "en", "_content": "Question Name"}]}, "CodeListRef": {"CodeListOID": "CL.QSTEST"}, "Origin": [{"Type": "Collected", "Source": "Investigator", "DocumentRef": [{"leafID": "LF.blankcrf", "PDFPageRef": [{"PageRefs": "17", "Type": "PhysicalRef"}]}]}]}, {"OID": "IT.QSMM.QSCAT", "Name": "QSCAT", "DataType": "text", "SASFieldName": "QSCAT", "Length": 50, "Description": {"TranslatedText": [{"lang": "en", "_content": "Category of Question"}]}, "Origin": [{"Type": "Collected", "Source": "Investigator", "DocumentRef": [{"leafID": "LF.blankcrf", "PDFPageRef": [{"PageRefs": "17", "Type": "PhysicalRef"}]}]}]}, {"OID": "IT.QSMM.QSORRES", "Name": "QSORRES", "DataType": "text", "SASFieldName": "QSORRES", "Length": 20, "Description": {"TranslatedText": [{"lang": "en", "_content": "Finding in Original Units"}]}, "Origin": [{"Type": "Collected", "Source": "Investigator", "DocumentRef": [{"leafID": "LF.blankcrf", "PDFPageRef": [{"PageRefs": "17", "Type": "PhysicalRef"}]}]}]}, {"OID": "IT.QSMM.QSSTRESC", "Name": "QSSTRESC", "DataType": "text", "SASFieldName": "QSSTRESC", "Length": 2, "Description": {"TranslatedText": [{"lang": "en", "_content": "Character Result/Finding in Std Format"}]}, "Origin": [{"Type": "Derived", "Source": "Sponsor"}]}, {"OID": "IT.QSMM.QSSTRESN", "Name": "QSSTRESN", "DataType": "integer", "SASFieldName": "QSSTRESN", "Length": 2, "Description": {"TranslatedText": [{"lang": "en", "_content": "Numeric Finding in Standard Units"}]}, "Origin": [{"Type": "Derived", "Source": "Sponsor"}]}, {"OID": "IT.QSMM.QSBLFL", "Name": "QSBLFL", "DataType": "text", "SASFieldName": "QSBLFL", "Length": 1, "Description": {"TranslatedText": [{"lang": "en", "_content": "Baseline Flag"}]}, "CodeListRef": {"CodeListOID": "CL.NY"}, "Origin": [{"Type": "Derived", "Source": "Sponsor"}]}, {"OID": "IT.QSMM.VISITNUM", "Name": "VISITNUM", "DataType": "integer", "SASFieldName": "VISITNUM", "Length": 2, "CommentOID": "COM.QS.VISITNUM", "Description": {"TranslatedText": [{"lang": "en", "_content": "Visit Number"}]}, "Origin": [{"Type": "Assigned", "Source": "Sponsor"}]}, {"OID": "IT.QSMM.VISIT", "Name": "VISIT", "DataType": "text", "SASFieldName": "VISIT", "Length": 8, "Description": {"TranslatedText": [{"lang": "en", "_content": "Visit Name"}]}, "Origin": [{"Type": "Assigned", "Source": "Sponsor"}]}, {"OID": "IT.QSMM.VISITDY", "Name": "VISITDY", "DataType": "integer", "SASFieldName": "VISITDY", "Length": 3, "Description": {"TranslatedText": [{"lang": "en", "_content": "Planned Study Day of Visit"}]}, "Origin": [{"Type": "Protocol", "Source": "Sponsor"}]}, {"OID": "IT.QSMM.QSDTC", "Name": "QSDTC", "DataType": "date", "SASFieldName": "QSDTC", "Description": {"TranslatedText": [{"lang": "en", "_content": "Date/Time of Finding"}]}, "Origin": [{"Type": "Collected", "Source": "Investigator", "DocumentRef": [{"leafID": "LF.blankcrf", "PDFPageRef": [{"PageRefs": "17", "Type": "PhysicalRef"}]}]}]}, {"OID": "IT.QSMM.QSDY", "Name": "QSDY", "DataType": "integer", "SASFieldName": "QSDY", "Length": 3, "Description": {"TranslatedText": [{"lang": "en", "_content": "Study Day of Finding"}]}, "Origin": [{"Type": "Derived", "Source": "Sponsor"}]}, {"OID": "IT.RELREC.STUDYID", "Name": "STUDYID", "DataType": "text", "SASFieldName": "STUDYID", "Length": 7, "Description": {"TranslatedText": [{"lang": "en", "_content": "Study Identifier"}]}, "Origin": [{"Type": "Protocol", "Source": "Sponsor"}]}, {"OID": "IT.RELREC.RDOMAIN", "Name": "RDOMAIN", "DataType": "text", "SASFieldName": "RDOMAIN", "Length": 2, "Description": {"TranslatedText": [{"lang": "en", "_content": "Related Domain Abbreviation"}]}, "Origin": [{"Type": "Derived", "Source": "Sponsor"}]}, {"OID": "IT.RELREC.USUBJID", "Name": "USUBJID", "DataType": "text", "SASFieldName": "USUBJID", "Length": 14, "Description": {"TranslatedText": [{"lang": "en", "_content": "Unique Subject Identifier"}]}, "Origin": [{"Type": "Derived", "Source": "Sponsor"}]}, {"OID": "IT.RELREC.IDVAR", "Name": "IDVAR", "DataType": "text", "SASFieldName": "IDVAR", "Length": 8, "CommentOID": "COM.IDVAR", "Description": {"TranslatedText": [{"lang": "en", "_content": "Identifying Variable"}]}, "Origin": [{"Type": "Assigned", "Source": "Sponsor"}]}, {"OID": "IT.RELREC.IDVARVAL", "Name": "IDVARVAL", "DataType": "text", "SASFieldName": "IDVARVAL", "Length": 2, "CommentOID": "COM.IDVARVAL", "Description": {"TranslatedText": [{"lang": "en", "_content": "Identifying Variable Value"}]}, "Origin": [{"Type": "Assigned", "Source": "Sponsor"}]}, {"OID": "IT.RELREC.RELTYPE", "Name": "RELTYPE", "DataType": "text", "SASFieldName": "RELTYPE", "Length": 4, "CommentOID": "COM.RELTYPE", "Description": {"TranslatedText": [{"lang": "en", "_content": "Relationship Type"}]}, "Origin": [{"Type": "Assigned", "Source": "Sponsor"}]}, {"OID": "IT.RELREC.RELID", "Name": "RELID", "DataType": "text", "SASFieldName": "RELID", "Length": 10, "Description": {"TranslatedText": [{"lang": "en", "_content": "Relationship Identifier"}]}, "Origin": [{"Type": "Derived", "Source": "Sponsor"}]}, {"OID": "IT.SC.STUDYID", "Name": "STUDYID", "DataType": "text", "SASFieldName": "STUDYID", "Length": 7, "Description": {"TranslatedText": [{"lang": "en", "_content": "Study Identifier"}]}, "Origin": [{"Type": "Protocol", "Source": "Sponsor"}]}, {"OID": "IT.SC.DOMAIN", "Name": "DOMAIN", "DataType": "text", "SASFieldName": "DOMAIN", "Length": 2, "Description": {"TranslatedText": [{"lang": "en", "_content": "Domain Abbreviation"}]}, "CodeListRef": {"CodeListOID": "CL.SC.DOMAIN"}, "Origin": [{"Type": "Assigned", "Source": "Sponsor"}]}, {"OID": "IT.SC.USUBJID", "Name": "USUBJID", "DataType": "text", "SASFieldName": "USUBJID", "Length": 14, "Description": {"TranslatedText": [{"lang": "en", "_content": "Unique Subject Identifier"}]}, "Origin": [{"Type": "Derived", "Source": "Sponsor"}]}, {"OID": "IT.SC.SCSEQ", "Name": "SCSEQ", "DataType": "integer", "SASFieldName": "SCSEQ", "Length": 1, "Description": {"TranslatedText": [{"lang": "en", "_content": "Sequence Number"}]}, "Origin": [{"Type": "Derived", "Source": "Sponsor"}]}, {"OID": "IT.SC.SCTESTCD", "Name": "SCTESTCD", "DataType": "text", "SASFieldName": "SCTESTCD", "Length": 8, "Description": {"TranslatedText": [{"lang": "en", "_content": "Subject Characteristic Short Name"}]}, "CodeListRef": {"CodeListOID": "CL.SCTESTCD"}, "Origin": [{"Type": "Assigned", "Source": "Sponsor"}]}, {"OID": "IT.SC.SCTEST", "Name": "SCTEST", "DataType": "text", "SASFieldName": "SCTEST", "Length": 16, "Description": {"TranslatedText": [{"lang": "en", "_content": "Subject Characteristic"}]}, "CodeListRef": {"CodeListOID": "CL.SCTEST"}, "Origin": [{"Type": "Collected", "Source": "Investigator", "DocumentRef": [{"leafID": "LF.blankcrf", "PDFPageRef": [{"PageRefs": "6", "Type": "PhysicalRef"}]}]}]}, {"OID": "IT.SC.SCORRES", "Name": "SCORRES", "DataType": "text", "SASFieldName": "SCORRES", "Length": 24, "Description": {"TranslatedText": [{"lang": "en", "_content": "Result or Finding in Original Units"}]}, "Origin": [{"Type": "Collected", "Source": "Investigator", "DocumentRef": [{"leafID": "LF.blankcrf", "PDFPageRef": [{"PageRefs": "3 6", "Type": "PhysicalRef"}]}]}], "ValueListRef": {"ValueListOID": "VL.SC.SCORRES"}}, {"OID": "IT.SC.SCSTRESC", "Name": "SCSTRESC", "DataType": "text", "SASFieldName": "SCSTRESC", "Length": 24, "Description": {"TranslatedText": [{"lang": "en", "_content": "Character Result/Finding in Std Format"}]}, "Origin": [{"Type": "Derived", "Source": "Sponsor"}]}, {"OID": "IT.SC.SCDTC", "Name": "SCDTC", "DataType": "date", "SASFieldName": "SCDTC", "Description": {"TranslatedText": [{"lang": "en", "_content": "Date/Time of Collection"}]}, "Origin": [{"Type": "Collected", "Source": "Investigator", "DocumentRef": [{"leafID": "LF.blankcrf", "PDFPageRef": [{"PageRefs": "6", "Type": "PhysicalRef"}]}]}]}, {"OID": "IT.SC.SCDY", "Name": "SCDY", "DataType": "integer", "SASFieldName": "SCDY", "Length": 3, "Description": {"TranslatedText": [{"lang": "en", "_content": "Study Day of Examination"}]}, "Origin": [{"Type": "Derived", "Source": "Sponsor"}]}, {"OID": "IT.SE.STUDYID", "Name": "STUDYID", "DataType": "text", "SASFieldName": "STUDYID", "Length": 7, "Description": {"TranslatedText": [{"lang": "en", "_content": "Study Identifier"}]}, "Origin": [{"Type": "Protocol", "Source": "Sponsor"}]}, {"OID": "IT.SE.DOMAIN", "Name": "DOMAIN", "DataType": "text", "SASFieldName": "DOMAIN", "Length": 2, "Description": {"TranslatedText": [{"lang": "en", "_content": "Domain Abbreviation"}]}, "CodeListRef": {"CodeListOID": "CL.SE.DOMAIN"}, "Origin": [{"Type": "Assigned", "Source": "Sponsor"}]}, {"OID": "IT.SE.USUBJID", "Name": "USUBJID", "DataType": "text", "SASFieldName": "USUBJID", "Length": 14, "Description": {"TranslatedText": [{"lang": "en", "_content": "Unique Subject Identifier"}]}, "Origin": [{"Type": "Derived", "Source": "Sponsor"}]}, {"OID": "IT.SE.SESEQ", "Name": "SESEQ", "DataType": "integer", "SASFieldName": "SESEQ", "Length": 1, "Description": {"TranslatedText": [{"lang": "en", "_content": "Sequence Number"}]}, "Origin": [{"Type": "Derived", "Source": "Sponsor"}]}, {"OID": "IT.SE.ETCD", "Name": "ETCD", "DataType": "text", "SASFieldName": "ETCD", "Length": 7, "Description": {"TranslatedText": [{"lang": "en", "_content": "Element Code"}]}, "Origin": [{"Type": "Assigned", "Source": "Sponsor"}]}, {"OID": "IT.SE.ELEMENT", "Name": "ELEMENT", "DataType": "text", "SASFieldName": "ELEMENT", "Length": 40, "Description": {"TranslatedText": [{"lang": "en", "_content": "Description of Element"}]}, "Origin": [{"Type": "Protocol", "Source": "Sponsor"}]}, {"OID": "IT.SE.SESTDTC", "Name": "SESTDTC", "DataType": "date", "SASFieldName": "SESTDTC", "Description": {"TranslatedText": [{"lang": "en", "_content": "Start Date/Time of Element"}]}, "Origin": [{"Type": "Derived", "Source": "Sponsor"}]}, {"OID": "IT.SE.SEENDTC", "Name": "SEENDTC", "DataType": "date", "SASFieldName": "SEENDTC", "Description": {"TranslatedText": [{"lang": "en", "_content": "End Date/Time of Element"}]}, "Origin": [{"Type": "Derived", "Source": "Sponsor"}]}, {"OID": "IT.SE.TAETORD", "Name": "TAETORD", "DataType": "integer", "SASFieldName": "TAETORD", "Length": 1, "Description": {"TranslatedText": [{"lang": "en", "_content": "Planned Order of Elements within Arm"}]}, "Origin": [{"Type": "Protocol", "Source": "Sponsor"}]}, {"OID": "IT.SUPPAE.STUDYID", "Name": "STUDYID", "DataType": "text", "SASFieldName": "STUDYID", "Length": 7, "Description": {"TranslatedText": [{"lang": "en", "_content": "Study Identifier"}]}, "Origin": [{"Type": "Protocol", "Source": "Sponsor"}]}, {"OID": "IT.SUPPAE.RDOMAIN", "Name": "RDOMAIN", "DataType": "text", "SASFieldName": "RDOMAIN", "Length": 2, "Description": {"TranslatedText": [{"lang": "en", "_content": "Related Domain Abbreviation"}]}, "Origin": [{"Type": "Derived", "Source": "Sponsor"}]}, {"OID": "IT.SUPPAE.USUBJID", "Name": "USUBJID", "DataType": "text", "SASFieldName": "USUBJID", "Length": 14, "Description": {"TranslatedText": [{"lang": "en", "_content": "Unique Subject Identifier"}]}, "Origin": [{"Type": "Derived", "Source": "Sponsor"}]}, {"OID": "IT.SUPPAE.IDVAR", "Name": "IDVAR", "DataType": "text", "SASFieldName": "IDVAR", "Length": 5, "CommentOID": "COM.IDVAR", "Description": {"TranslatedText": [{"lang": "en", "_content": "Identifying Variable"}]}, "Origin": [{"Type": "Assigned", "Source": "Sponsor"}]}, {"OID": "IT.SUPPAE.IDVARVAL", "Name": "IDVARVAL", "DataType": "text", "SASFieldName": "IDVARVAL", "Length": 1, "CommentOID": "COM.IDVARVAL", "Description": {"TranslatedText": [{"lang": "en", "_content": "Identifying Variable Value"}]}, "Origin": [{"Type": "Assigned", "Source": "Sponsor"}]}, {"OID": "IT.SUPPAE.QNAM", "Name": "QNAM", "DataType": "text", "SASFieldName": "QNAM", "Length": 7, "Description": {"TranslatedText": [{"lang": "en", "_content": "Qualifier Variable Name"}]}, "Origin": [{"Type": "Assigned", "Source": "Sponsor"}]}, {"OID": "IT.SUPPAE.QLABEL", "Name": "QLABEL", "DataType": "text", "SASFieldName": "QLABEL", "Length": 30, "Description": {"TranslatedText": [{"lang": "en", "_content": "Qualifier Variable Label"}]}, "Origin": [{"Type": "Assigned", "Source": "Sponsor"}]}, {"OID": "IT.SUPPAE.QVAL", "Name": "QVAL", "DataType": "text", "SASFieldName": "QVAL", "Length": 60, "Description": {"TranslatedText": [{"lang": "en", "_content": "Data Value"}]}, "Origin": [{"Type": "Assigned", "Source": "Sponsor"}], "ValueListRef": {"ValueListOID": "VL.SUPPAE.QVAL"}}, {"OID": "IT.SUPPAE.QORIG", "Name": "QORIG", "DataType": "text", "SASFieldName": "QORIG", "Length": 7, "Description": {"TranslatedText": [{"lang": "en", "_content": "Origin"}]}, "Origin": [{"Type": "Assigned", "Source": "Sponsor"}]}, {"OID": "IT.SUPPAE.QEVAL", "Name": "QEVAL", "DataType": "text", "SASFieldName": "QEVAL", "Length": 30, "Description": {"TranslatedText": [{"lang": "en", "_content": "Evaluator"}]}, "Origin": [{"Type": "Assigned", "Source": "Sponsor"}]}, {"OID": "IT.SUPPCM.STUDYID", "Name": "STUDYID", "DataType": "text", "SASFieldName": "STUDYID", "Length": 7, "Description": {"TranslatedText": [{"lang": "en", "_content": "Study Identifier"}]}, "Origin": [{"Type": "Protocol", "Source": "Sponsor"}]}, {"OID": "IT.SUPPCM.RDOMAIN", "Name": "RDOMAIN", "DataType": "text", "SASFieldName": "RDOMAIN", "Length": 2, "Description": {"TranslatedText": [{"lang": "en", "_content": "Related Domain Abbreviation"}]}, "Origin": [{"Type": "Derived", "Source": "Sponsor"}]}, {"OID": "IT.SUPPCM.USUBJID", "Name": "USUBJID", "DataType": "text", "SASFieldName": "USUBJID", "Length": 14, "Description": {"TranslatedText": [{"lang": "en", "_content": "Unique Subject Identifier"}]}, "Origin": [{"Type": "Derived", "Source": "Sponsor"}]}, {"OID": "IT.SUPPCM.IDVAR", "Name": "IDVAR", "DataType": "text", "SASFieldName": "IDVAR", "Length": 5, "CommentOID": "COM.IDVAR", "Description": {"TranslatedText": [{"lang": "en", "_content": "Identifying Variable"}]}, "Origin": [{"Type": "Assigned", "Source": "Sponsor"}]}, {"OID": "IT.SUPPCM.IDVARVAL", "Name": "IDVARVAL", "DataType": "text", "SASFieldName": "IDVARVAL", "Length": 2, "CommentOID": "COM.IDVARVAL", "Description": {"TranslatedText": [{"lang": "en", "_content": "Identifying Variable Value"}]}, "Origin": [{"Type": "Assigned", "Source": "Sponsor"}]}, {"OID": "IT.SUPPCM.QNAM", "Name": "QNAM", "DataType": "text", "SASFieldName": "QNAM", "Length": 8, "Description": {"TranslatedText": [{"lang": "en", "_content": "Qualifier Variable Name"}]}, "Origin": [{"Type": "Assigned", "Source": "Sponsor"}]}, {"OID": "IT.SUPPCM.QLABEL", "Name": "QLABEL", "DataType": "text", "SASFieldName": "QLABEL", "Length": 26, "Description": {"TranslatedText": [{"lang": "en", "_content": "Qualifier Variable Label"}]}, "Origin": [{"Type": "Assigned", "Source": "Sponsor"}]}, {"OID": "IT.SUPPCM.QVAL", "Name": "QVAL", "DataType": "text", "SASFieldName": "QVAL", "Length": 43, "Description": {"TranslatedText": [{"lang": "en", "_content": "Data Value"}]}, "Origin": [{"Type": "Assigned", "Source": "Sponsor"}], "ValueListRef": {"ValueListOID": "VL.SUPPCM.QVAL"}}, {"OID": "IT.SUPPCM.QORIG", "Name": "QORIG", "DataType": "text", "SASFieldName": "QORIG", "Length": 10, "Description": {"TranslatedText": [{"lang": "en", "_content": "Origin"}]}, "Origin": [{"Type": "Assigned", "Source": "Sponsor"}]}, {"OID": "IT.SUPPCM.QEVAL", "Name": "QEVAL", "DataType": "text", "SASFieldName": "QEVAL", "Length": 30, "Description": {"TranslatedText": [{"lang": "en", "_content": "Evaluator"}]}, "Origin": [{"Type": "Assigned", "Source": "Sponsor"}]}, {"OID": "IT.SUPPDM.STUDYID", "Name": "STUDYID", "DataType": "text", "SASFieldName": "STUDYID", "Length": 7, "Description": {"TranslatedText": [{"lang": "en", "_content": "Study Identifier"}]}, "Origin": [{"Type": "Protocol", "Source": "Sponsor"}]}, {"OID": "IT.SUPPDM.RDOMAIN", "Name": "RDOMAIN", "DataType": "text", "SASFieldName": "RDOMAIN", "Length": 2, "Description": {"TranslatedText": [{"lang": "en", "_content": "Related Domain Abbreviation"}]}, "Origin": [{"Type": "Derived", "Source": "Sponsor"}]}, {"OID": "IT.SUPPDM.USUBJID", "Name": "USUBJID", "DataType": "text", "SASFieldName": "USUBJID", "Length": 14, "Description": {"TranslatedText": [{"lang": "en", "_content": "Unique Subject Identifier"}]}, "Origin": [{"Type": "Derived", "Source": "Sponsor"}]}, {"OID": "IT.SUPPDM.IDVAR", "Name": "IDVAR", "DataType": "text", "SASFieldName": "IDVAR", "Length": 1, "CommentOID": "COM.IDVAR", "Description": {"TranslatedText": [{"lang": "en", "_content": "Identifying Variable"}]}, "Origin": [{"Type": "Assigned", "Source": "Sponsor"}]}, {"OID": "IT.SUPPDM.IDVARVAL", "Name": "IDVARVAL", "DataType": "text", "SASFieldName": "IDVARVAL", "Length": 1, "CommentOID": "COM.IDVARVAL", "Description": {"TranslatedText": [{"lang": "en", "_content": "Identifying Variable Value"}]}, "Origin": [{"Type": "Assigned", "Source": "Sponsor"}]}, {"OID": "IT.SUPPDM.QNAM", "Name": "QNAM", "DataType": "text", "SASFieldName": "QNAM", "Length": 8, "Description": {"TranslatedText": [{"lang": "en", "_content": "Qualifier Variable Name"}]}, "Origin": [{"Type": "Assigned", "Source": "Sponsor"}]}, {"OID": "IT.SUPPDM.QLABEL", "Name": "QLABEL", "DataType": "text", "SASFieldName": "QLABEL", "Length": 26, "Description": {"TranslatedText": [{"lang": "en", "_content": "Qualifier Variable Label"}]}, "Origin": [{"Type": "Assigned", "Source": "Sponsor"}]}, {"OID": "IT.SUPPDM.QVAL", "Name": "QVAL", "DataType": "text", "SASFieldName": "QVAL", "Length": 30, "Description": {"TranslatedText": [{"lang": "en", "_content": "Data Value"}]}, "Origin": [{"Type": "Assigned", "Source": "Sponsor"}], "ValueListRef": {"ValueListOID": "VL.SUPPDM.QVAL"}}, {"OID": "IT.SUPPDM.QORIG", "Name": "QORIG", "DataType": "text", "SASFieldName": "QORIG", "Length": 11, "Description": {"TranslatedText": [{"lang": "en", "_content": "Origin"}]}, "Origin": [{"Type": "Assigned", "Source": "Sponsor"}]}, {"OID": "IT.SUPPDM.QEVAL", "Name": "QEVAL", "DataType": "text", "SASFieldName": "QEVAL", "Length": 30, "Description": {"TranslatedText": [{"lang": "en", "_content": "Evaluator"}]}, "Origin": [{"Type": "Assigned", "Source": "Sponsor"}]}, {"OID": "IT.SUPPEG.STUDYID", "Name": "STUDYID", "DataType": "text", "SASFieldName": "STUDYID", "Length": 7, "Description": {"TranslatedText": [{"lang": "en", "_content": "Study Identifier"}]}, "Origin": [{"Type": "Protocol", "Source": "Sponsor"}]}, {"OID": "IT.SUPPEG.RDOMAIN", "Name": "RDOMAIN", "DataType": "text", "SASFieldName": "RDOMAIN", "Length": 2, "Description": {"TranslatedText": [{"lang": "en", "_content": "Related Domain Abbreviation"}]}, "Origin": [{"Type": "Derived", "Source": "Sponsor"}]}, {"OID": "IT.SUPPEG.USUBJID", "Name": "USUBJID", "DataType": "text", "SASFieldName": "USUBJID", "Length": 14, "Description": {"TranslatedText": [{"lang": "en", "_content": "Unique Subject Identifier"}]}, "Origin": [{"Type": "Derived", "Source": "Sponsor"}]}, {"OID": "IT.SUPPEG.IDVAR", "Name": "IDVAR", "DataType": "text", "SASFieldName": "IDVAR", "Length": 5, "CommentOID": "COM.IDVAR", "Description": {"TranslatedText": [{"lang": "en", "_content": "Identifying Variable"}]}, "Origin": [{"Type": "Assigned", "Source": "Sponsor"}]}, {"OID": "IT.SUPPEG.IDVARVAL", "Name": "IDVARVAL", "DataType": "text", "SASFieldName": "IDVARVAL", "Length": 2, "CommentOID": "COM.IDVARVAL", "Description": {"TranslatedText": [{"lang": "en", "_content": "Identifying Variable Value"}]}, "Origin": [{"Type": "Assigned", "Source": "Sponsor"}]}, {"OID": "IT.SUPPEG.QNAM", "Name": "QNAM", "DataType": "text", "SASFieldName": "QNAM", "Length": 7, "Description": {"TranslatedText": [{"lang": "en", "_content": "Qualifier Variable Name"}]}, "Origin": [{"Type": "Assigned", "Source": "Sponsor"}]}, {"OID": "IT.SUPPEG.QLABEL", "Name": "QLABEL", "DataType": "text", "SASFieldName": "QLABEL", "Length": 36, "Description": {"TranslatedText": [{"lang": "en", "_content": "Qualifier Variable Label"}]}, "Origin": [{"Type": "Assigned", "Source": "Sponsor"}]}, {"OID": "IT.SUPPEG.QVAL", "Name": "QVAL", "DataType": "text", "SASFieldName": "QVAL", "Length": 2, "Description": {"TranslatedText": [{"lang": "en", "_content": "Data Value"}]}, "Origin": [{"Type": "Assigned", "Source": "Sponsor"}], "ValueListRef": {"ValueListOID": "VL.SUPPEG.QVAL"}}, {"OID": "IT.SUPPEG.QORIG", "Name": "QORIG", "DataType": "text", "SASFieldName": "QORIG", "Length": 7, "Description": {"TranslatedText": [{"lang": "en", "_content": "Origin"}]}, "Origin": [{"Type": "Assigned", "Source": "Sponsor"}]}, {"OID": "IT.SUPPEG.QEVAL", "Name": "QEVAL", "DataType": "text", "SASFieldName": "QEVAL", "Length": 30, "Description": {"TranslatedText": [{"lang": "en", "_content": "Evaluator"}]}, "Origin": [{"Type": "Assigned", "Source": "Sponsor"}]}, {"OID": "IT.SUPPEX.STUDYID", "Name": "STUDYID", "DataType": "text", "SASFieldName": "STUDYID", "Length": 7, "Description": {"TranslatedText": [{"lang": "en", "_content": "Study Identifier"}]}, "Origin": [{"Type": "Protocol", "Source": "Sponsor"}]}, {"OID": "IT.SUPPEX.RDOMAIN", "Name": "RDOMAIN", "DataType": "text", "SASFieldName": "RDOMAIN", "Length": 2, "Description": {"TranslatedText": [{"lang": "en", "_content": "Related Domain Abbreviation"}]}, "Origin": [{"Type": "Derived", "Source": "Sponsor"}]}, {"OID": "IT.SUPPEX.USUBJID", "Name": "USUBJID", "DataType": "text", "SASFieldName": "USUBJID", "Length": 14, "Description": {"TranslatedText": [{"lang": "en", "_content": "Unique Subject Identifier"}]}, "Origin": [{"Type": "Derived", "Source": "Sponsor"}]}, {"OID": "IT.SUPPEX.IDVAR", "Name": "IDVAR", "DataType": "text", "SASFieldName": "IDVAR", "Length": 5, "CommentOID": "COM.IDVAR", "Description": {"TranslatedText": [{"lang": "en", "_content": "Identifying Variable"}]}, "Origin": [{"Type": "Assigned", "Source": "Sponsor"}]}, {"OID": "IT.SUPPEX.IDVARVAL", "Name": "IDVARVAL", "DataType": "text", "SASFieldName": "IDVARVAL", "Length": 1, "CommentOID": "COM.IDVARVAL", "Description": {"TranslatedText": [{"lang": "en", "_content": "Identifying Variable Value"}]}, "Origin": [{"Type": "Assigned", "Source": "Sponsor"}]}, {"OID": "IT.SUPPEX.QNAM", "Name": "QNAM", "DataType": "text", "SASFieldName": "QNAM", "Length": 4, "Description": {"TranslatedText": [{"lang": "en", "_content": "Qualifier Variable Name"}]}, "Origin": [{"Type": "Assigned", "Source": "Sponsor"}]}, {"OID": "IT.SUPPEX.QLABEL", "Name": "QLABEL", "DataType": "text", "SASFieldName": "QLABEL", "Length": 25, "Description": {"TranslatedText": [{"lang": "en", "_content": "Qualifier Variable Label"}]}, "Origin": [{"Type": "Assigned", "Source": "Sponsor"}]}, {"OID": "IT.SUPPEX.QVAL", "Name": "QVAL", "DataType": "text", "SASFieldName": "QVAL", "Length": 2, "Description": {"TranslatedText": [{"lang": "en", "_content": "Data Value"}]}, "Origin": [{"Type": "Assigned", "Source": "Sponsor"}], "ValueListRef": {"ValueListOID": "VL.SUPPEX.QVAL"}}, {"OID": "IT.SUPPEX.QORIG", "Name": "QORIG", "DataType": "text", "SASFieldName": "QORIG", "Length": 11, "Description": {"TranslatedText": [{"lang": "en", "_content": "Origin"}]}, "Origin": [{"Type": "Assigned", "Source": "Sponsor"}]}, {"OID": "IT.SUPPEX.QEVAL", "Name": "QEVAL", "DataType": "text", "SASFieldName": "QEVAL", "Length": 30, "Description": {"TranslatedText": [{"lang": "en", "_content": "Evaluator"}]}, "Origin": [{"Type": "Assigned", "Source": "Sponsor"}]}, {"OID": "IT.SUPPLB.STUDYID", "Name": "STUDYID", "DataType": "text", "SASFieldName": "STUDYID", "Length": 7, "Description": {"TranslatedText": [{"lang": "en", "_content": "Study Identifier"}]}, "Origin": [{"Type": "Protocol", "Source": "Sponsor"}]}, {"OID": "IT.SUPPLB.RDOMAIN", "Name": "RDOMAIN", "DataType": "text", "SASFieldName": "RDOMAIN", "Length": 2, "Description": {"TranslatedText": [{"lang": "en", "_content": "Related Domain Abbreviation"}]}, "Origin": [{"Type": "Derived", "Source": "Sponsor"}]}, {"OID": "IT.SUPPLB.USUBJID", "Name": "USUBJID", "DataType": "text", "SASFieldName": "USUBJID", "Length": 14, "Description": {"TranslatedText": [{"lang": "en", "_content": "Unique Subject Identifier"}]}, "Origin": [{"Type": "Derived", "Source": "Sponsor"}]}, {"OID": "IT.SUPPLB.IDVAR", "Name": "IDVAR", "DataType": "text", "SASFieldName": "IDVAR", "Length": 5, "CommentOID": "COM.IDVAR", "Description": {"TranslatedText": [{"lang": "en", "_content": "Identifying Variable"}]}, "Origin": [{"Type": "Assigned", "Source": "Sponsor"}]}, {"OID": "IT.SUPPLB.IDVARVAL", "Name": "IDVARVAL", "DataType": "text", "SASFieldName": "IDVARVAL", "Length": 2, "CommentOID": "COM.IDVARVAL", "Description": {"TranslatedText": [{"lang": "en", "_content": "Identifying Variable Value"}]}, "Origin": [{"Type": "Assigned", "Source": "Sponsor"}]}, {"OID": "IT.SUPPLB.QNAM", "Name": "QNAM", "DataType": "text", "SASFieldName": "QNAM", "Length": 7, "Description": {"TranslatedText": [{"lang": "en", "_content": "Qualifier Variable Name"}]}, "Origin": [{"Type": "Assigned", "Source": "Sponsor"}]}, {"OID": "IT.SUPPLB.QLABEL", "Name": "QLABEL", "DataType": "text", "SASFieldName": "QLABEL", "Length": 36, "Description": {"TranslatedText": [{"lang": "en", "_content": "Qualifier Variable Label"}]}, "Origin": [{"Type": "Assigned", "Source": "Sponsor"}]}, {"OID": "IT.SUPPLB.QVAL", "Name": "QVAL", "DataType": "text", "SASFieldName": "QVAL", "Length": 2, "Description": {"TranslatedText": [{"lang": "en", "_content": "Data Value"}]}, "Origin": [{"Type": "Assigned", "Source": "Sponsor"}], "ValueListRef": {"ValueListOID": "VL.SUPPLB.QVAL"}}, {"OID": "IT.SUPPLB.QORIG", "Name": "QORIG", "DataType": "text", "SASFieldName": "QORIG", "Length": 7, "Description": {"TranslatedText": [{"lang": "en", "_content": "Origin"}]}, "Origin": [{"Type": "Assigned", "Source": "Sponsor"}]}, {"OID": "IT.SUPPLB.QEVAL", "Name": "QEVAL", "DataType": "text", "SASFieldName": "QEVAL", "Length": 30, "Description": {"TranslatedText": [{"lang": "en", "_content": "Evaluator"}]}, "Origin": [{"Type": "Assigned", "Source": "Sponsor"}]}, {"OID": "IT.SUPPQSCG.STUDYID", "Name": "STUDYID", "DataType": "text", "SASFieldName": "STUDYID", "Length": 7, "Description": {"TranslatedText": [{"lang": "en", "_content": "Study Identifier"}]}, "Origin": [{"Type": "Protocol", "Source": "Sponsor"}]}, {"OID": "IT.SUPPQSCG.RDOMAIN", "Name": "RDOMAIN", "DataType": "text", "SASFieldName": "RDOMAIN", "Length": 2, "Description": {"TranslatedText": [{"lang": "en", "_content": "Related Domain Abbreviation"}]}, "Origin": [{"Type": "Derived", "Source": "Sponsor"}]}, {"OID": "IT.SUPPQSCG.USUBJID", "Name": "USUBJID", "DataType": "text", "SASFieldName": "USUBJID", "Length": 14, "Description": {"TranslatedText": [{"lang": "en", "_content": "Unique Subject Identifier"}]}, "Origin": [{"Type": "Derived", "Source": "Sponsor"}]}, {"OID": "IT.SUPPQSCG.IDVAR", "Name": "IDVAR", "DataType": "text", "SASFieldName": "IDVAR", "Length": 5, "CommentOID": "COM.IDVAR", "Description": {"TranslatedText": [{"lang": "en", "_content": "Identifying Variable"}]}, "Origin": [{"Type": "Assigned", "Source": "Sponsor"}]}, {"OID": "IT.SUPPQSCG.IDVARVAL", "Name": "IDVARVAL", "DataType": "text", "SASFieldName": "IDVARVAL", "Length": 50, "CommentOID": "COM.IDVARVAL", "Description": {"TranslatedText": [{"lang": "en", "_content": "Identifying Variable Value"}]}, "Origin": [{"Type": "Assigned", "Source": "Sponsor"}]}, {"OID": "IT.SUPPQSCG.QNAM", "Name": "QNAM", "DataType": "text", "SASFieldName": "QNAM", "Length": 7, "Description": {"TranslatedText": [{"lang": "en", "_content": "Qualifier Variable Name"}]}, "Origin": [{"Type": "Assigned", "Source": "Sponsor"}]}, {"OID": "IT.SUPPQSCG.QLABEL", "Name": "QLABEL", "DataType": "text", "SASFieldName": "QLABEL", "Length": 36, "Description": {"TranslatedText": [{"lang": "en", "_content": "Qualifier Variable Label"}]}, "Origin": [{"Type": "Assigned", "Source": "Sponsor"}]}, {"OID": "IT.SUPPQSCG.QVAL", "Name": "QVAL", "DataType": "text", "SASFieldName": "QVAL", "Length": 3, "Description": {"TranslatedText": [{"lang": "en", "_content": "Data Value"}]}, "Origin": [{"Type": "Assigned", "Source": "Sponsor"}]}, {"OID": "IT.SUPPQSCG.QORIG", "Name": "QORIG", "DataType": "text", "SASFieldName": "QORIG", "Length": 7, "Description": {"TranslatedText": [{"lang": "en", "_content": "Origin"}]}, "Origin": [{"Type": "Assigned", "Source": "Sponsor"}]}, {"OID": "IT.SUPPQSCG.QEVAL", "Name": "QEVAL", "DataType": "text", "SASFieldName": "QEVAL", "Length": 30, "Description": {"TranslatedText": [{"lang": "en", "_content": "Evaluator"}]}, "Origin": [{"Type": "Assigned", "Source": "Sponsor"}]}, {"OID": "IT.SUPPQSCS.STUDYID", "Name": "STUDYID", "DataType": "text", "SASFieldName": "STUDYID", "Length": 7, "Description": {"TranslatedText": [{"lang": "en", "_content": "Study Identifier"}]}, "Origin": [{"Type": "Protocol", "Source": "Sponsor"}]}, {"OID": "IT.SUPPQSCS.RDOMAIN", "Name": "RDOMAIN", "DataType": "text", "SASFieldName": "RDOMAIN", "Length": 2, "Description": {"TranslatedText": [{"lang": "en", "_content": "Related Domain Abbreviation"}]}, "Origin": [{"Type": "Derived", "Source": "Sponsor"}]}, {"OID": "IT.SUPPQSCS.USUBJID", "Name": "USUBJID", "DataType": "text", "SASFieldName": "USUBJID", "Length": 14, "Description": {"TranslatedText": [{"lang": "en", "_content": "Unique Subject Identifier"}]}, "Origin": [{"Type": "Derived", "Source": "Sponsor"}]}, {"OID": "IT.SUPPQSCS.IDVAR", "Name": "IDVAR", "DataType": "text", "SASFieldName": "IDVAR", "Length": 5, "CommentOID": "COM.IDVAR", "Description": {"TranslatedText": [{"lang": "en", "_content": "Identifying Variable"}]}, "Origin": [{"Type": "Assigned", "Source": "Sponsor"}]}, {"OID": "IT.SUPPQSCS.IDVARVAL", "Name": "IDVARVAL", "DataType": "text", "SASFieldName": "IDVARVAL", "Length": 50, "CommentOID": "COM.IDVARVAL", "Description": {"TranslatedText": [{"lang": "en", "_content": "Identifying Variable Value"}]}, "Origin": [{"Type": "Assigned", "Source": "Sponsor"}]}, {"OID": "IT.SUPPQSCS.QNAM", "Name": "QNAM", "DataType": "text", "SASFieldName": "QNAM", "Length": 7, "Description": {"TranslatedText": [{"lang": "en", "_content": "Qualifier Variable Name"}]}, "Origin": [{"Type": "Assigned", "Source": "Sponsor"}]}, {"OID": "IT.SUPPQSCS.QLABEL", "Name": "QLABEL", "DataType": "text", "SASFieldName": "QLABEL", "Length": 36, "Description": {"TranslatedText": [{"lang": "en", "_content": "Qualifier Variable Label"}]}, "Origin": [{"Type": "Assigned", "Source": "Sponsor"}]}, {"OID": "IT.SUPPQSCS.QVAL", "Name": "QVAL", "DataType": "text", "SASFieldName": "QVAL", "Length": 3, "Description": {"TranslatedText": [{"lang": "en", "_content": "Data Value"}]}, "Origin": [{"Type": "Assigned", "Source": "Sponsor"}]}, {"OID": "IT.SUPPQSCS.QORIG", "Name": "QORIG", "DataType": "text", "SASFieldName": "QORIG", "Length": 7, "Description": {"TranslatedText": [{"lang": "en", "_content": "Origin"}]}, "Origin": [{"Type": "Assigned", "Source": "Sponsor"}]}, {"OID": "IT.SUPPQSCS.QEVAL", "Name": "QEVAL", "DataType": "text", "SASFieldName": "QEVAL", "Length": 30, "Description": {"TranslatedText": [{"lang": "en", "_content": "Evaluator"}]}, "Origin": [{"Type": "Assigned", "Source": "Sponsor"}]}, {"OID": "IT.SUPPQSMM.STUDYID", "Name": "STUDYID", "DataType": "text", "SASFieldName": "STUDYID", "Length": 7, "Description": {"TranslatedText": [{"lang": "en", "_content": "Study Identifier"}]}, "Origin": [{"Type": "Protocol", "Source": "Sponsor"}]}, {"OID": "IT.SUPPQSMM.RDOMAIN", "Name": "RDOMAIN", "DataType": "text", "SASFieldName": "RDOMAIN", "Length": 2, "Description": {"TranslatedText": [{"lang": "en", "_content": "Related Domain Abbreviation"}]}, "Origin": [{"Type": "Derived", "Source": "Sponsor"}]}, {"OID": "IT.SUPPQSMM.USUBJID", "Name": "USUBJID", "DataType": "text", "SASFieldName": "USUBJID", "Length": 14, "Description": {"TranslatedText": [{"lang": "en", "_content": "Unique Subject Identifier"}]}, "Origin": [{"Type": "Derived", "Source": "Sponsor"}]}, {"OID": "IT.SUPPQSMM.IDVAR", "Name": "IDVAR", "DataType": "text", "SASFieldName": "IDVAR", "Length": 5, "CommentOID": "COM.IDVAR", "Description": {"TranslatedText": [{"lang": "en", "_content": "Identifying Variable"}]}, "Origin": [{"Type": "Assigned", "Source": "Sponsor"}]}, {"OID": "IT.SUPPQSMM.IDVARVAL", "Name": "IDVARVAL", "DataType": "text", "SASFieldName": "IDVARVAL", "Length": 50, "CommentOID": "COM.IDVARVAL", "Description": {"TranslatedText": [{"lang": "en", "_content": "Identifying Variable Value"}]}, "Origin": [{"Type": "Assigned", "Source": "Sponsor"}]}, {"OID": "IT.SUPPQSMM.QNAM", "Name": "QNAM", "DataType": "text", "SASFieldName": "QNAM", "Length": 7, "Description": {"TranslatedText": [{"lang": "en", "_content": "Qualifier Variable Name"}]}, "Origin": [{"Type": "Assigned", "Source": "Sponsor"}]}, {"OID": "IT.SUPPQSMM.QLABEL", "Name": "QLABEL", "DataType": "text", "SASFieldName": "QLABEL", "Length": 36, "Description": {"TranslatedText": [{"lang": "en", "_content": "Qualifier Variable Label"}]}, "Origin": [{"Type": "Assigned", "Source": "Sponsor"}]}, {"OID": "IT.SUPPQSMM.QVAL", "Name": "QVAL", "DataType": "text", "SASFieldName": "QVAL", "Length": 3, "Description": {"TranslatedText": [{"lang": "en", "_content": "Data Value"}]}, "Origin": [{"Type": "Assigned", "Source": "Sponsor"}], "ValueListRef": {"ValueListOID": "VL.SUPPQSMM.QVAL"}}, {"OID": "IT.SUPPQSMM.QORIG", "Name": "QORIG", "DataType": "text", "SASFieldName": "QORIG", "Length": 7, "Description": {"TranslatedText": [{"lang": "en", "_content": "Origin"}]}, "Origin": [{"Type": "Assigned", "Source": "Sponsor"}]}, {"OID": "IT.SUPPQSMM.QEVAL", "Name": "QEVAL", "DataType": "text", "SASFieldName": "QEVAL", "Length": 30, "Description": {"TranslatedText": [{"lang": "en", "_content": "Evaluator"}]}, "Origin": [{"Type": "Assigned", "Source": "Sponsor"}]}, {"OID": "IT.SUPPVS.STUDYID", "Name": "STUDYID", "DataType": "text", "SASFieldName": "STUDYID", "Length": 7, "Description": {"TranslatedText": [{"lang": "en", "_content": "Study Identifier"}]}, "Origin": [{"Type": "Protocol", "Source": "Sponsor"}]}, {"OID": "IT.SUPPVS.RDOMAIN", "Name": "RDOMAIN", "DataType": "text", "SASFieldName": "RDOMAIN", "Length": 2, "Description": {"TranslatedText": [{"lang": "en", "_content": "Related Domain Abbreviation"}]}, "Origin": [{"Type": "Derived", "Source": "Sponsor"}]}, {"OID": "IT.SUPPVS.USUBJID", "Name": "USUBJID", "DataType": "text", "SASFieldName": "USUBJID", "Length": 14, "Description": {"TranslatedText": [{"lang": "en", "_content": "Unique Subject Identifier"}]}, "Origin": [{"Type": "Derived", "Source": "Sponsor"}]}, {"OID": "IT.SUPPVS.IDVAR", "Name": "IDVAR", "DataType": "text", "SASFieldName": "IDVAR", "Length": 5, "CommentOID": "COM.IDVAR", "Description": {"TranslatedText": [{"lang": "en", "_content": "Identifying Variable"}]}, "Origin": [{"Type": "Assigned", "Source": "Sponsor"}]}, {"OID": "IT.SUPPVS.IDVARVAL", "Name": "IDVARVAL", "DataType": "text", "SASFieldName": "IDVARVAL", "Length": 2, "CommentOID": "COM.IDVARVAL", "Description": {"TranslatedText": [{"lang": "en", "_content": "Identifying Variable Value"}]}, "Origin": [{"Type": "Assigned", "Source": "Sponsor"}]}, {"OID": "IT.SUPPVS.QNAM", "Name": "QNAM", "DataType": "text", "SASFieldName": "QNAM", "Length": 7, "Description": {"TranslatedText": [{"lang": "en", "_content": "Qualifier Variable Name"}]}, "Origin": [{"Type": "Assigned", "Source": "Sponsor"}]}, {"OID": "IT.SUPPVS.QLABEL", "Name": "QLABEL", "DataType": "text", "SASFieldName": "QLABEL", "Length": 36, "Description": {"TranslatedText": [{"lang": "en", "_content": "Qualifier Variable Label"}]}, "Origin": [{"Type": "Assigned", "Source": "Sponsor"}]}, {"OID": "IT.SUPPVS.QVAL", "Name": "QVAL", "DataType": "text", "SASFieldName": "QVAL", "Length": 2, "Description": {"TranslatedText": [{"lang": "en", "_content": "Data Value"}]}, "Origin": [{"Type": "Assigned", "Source": "Sponsor"}], "ValueListRef": {"ValueListOID": "VL.SUPPVS.QVAL"}}, {"OID": "IT.SUPPVS.QORIG", "Name": "QORIG", "DataType": "text", "SASFieldName": "QORIG", "Length": 7, "Description": {"TranslatedText": [{"lang": "en", "_content": "Origin"}]}, "Origin": [{"Type": "Assigned", "Source": "Sponsor"}]}, {"OID": "IT.SUPPVS.QEVAL", "Name": "QEVAL", "DataType": "text", "SASFieldName": "QEVAL", "Length": 30, "Description": {"TranslatedText": [{"lang": "en", "_content": "Evaluator"}]}, "Origin": [{"Type": "Assigned", "Source": "Sponsor"}]}, {"OID": "IT.SV.STUDYID", "Name": "STUDYID", "DataType": "text", "SASFieldName": "STUDYID", "Length": 7, "Description": {"TranslatedText": [{"lang": "en", "_content": "Study Identifier"}]}, "Origin": [{"Type": "Protocol", "Source": "Sponsor"}]}, {"OID": "IT.SV.DOMAIN", "Name": "DOMAIN", "DataType": "text", "SASFieldName": "DOMAIN", "Length": 2, "Description": {"TranslatedText": [{"lang": "en", "_content": "Domain Abbreviation"}]}, "CodeListRef": {"CodeListOID": "CL.SV.DOMAIN"}, "Origin": [{"Type": "Assigned", "Source": "Sponsor"}]}, {"OID": "IT.SV.USUBJID", "Name": "USUBJID", "DataType": "text", "SASFieldName": "USUBJID", "Length": 14, "Description": {"TranslatedText": [{"lang": "en", "_content": "Unique Subject Identifier"}]}, "Origin": [{"Type": "Derived", "Source": "Sponsor"}]}, {"OID": "IT.SV.VISITNUM", "Name": "VISITNUM", "DataType": "integer", "SASFieldName": "VISITNUM", "Length": 2, "Description": {"TranslatedText": [{"lang": "en", "_content": "Visit Number"}]}, "Origin": [{"Type": "Derived", "Source": "Sponsor"}]}, {"OID": "IT.SV.VISIT", "Name": "VISIT", "DataType": "text", "SASFieldName": "VISIT", "Length": 8, "Description": {"TranslatedText": [{"lang": "en", "_content": "Visit Name"}]}, "Origin": [{"Type": "Derived", "Source": "Sponsor"}]}, {"OID": "IT.SV.VISITDY", "Name": "VISITDY", "DataType": "integer", "SASFieldName": "VISITDY", "Length": 3, "Description": {"TranslatedText": [{"lang": "en", "_content": "Planned Study Day of Visit"}]}, "Origin": [{"Type": "Protocol", "Source": "Sponsor"}]}, {"OID": "IT.SV.SVSTDTC", "Name": "SVSTDTC", "DataType": "date", "SASFieldName": "SVSTDTC", "Description": {"TranslatedText": [{"lang": "en", "_content": "Start Date/Time of Visit"}]}, "Origin": [{"Type": "Derived", "Source": "Sponsor"}]}, {"OID": "IT.SV.SVENDTC", "Name": "SVENDTC", "DataType": "date", "SASFieldName": "SVENDTC", "Description": {"TranslatedText": [{"lang": "en", "_content": "End Date/Time of Visit"}]}, "Origin": [{"Type": "Derived", "Source": "Sponsor"}]}, {"OID": "IT.SV.SVSTDY", "Name": "SVSTDY", "DataType": "integer", "SASFieldName": "SVSTDY", "Length": 3, "Description": {"TranslatedText": [{"lang": "en", "_content": "Study Day of Start of Visit"}]}, "Origin": [{"Type": "Derived", "Source": "Sponsor"}]}, {"OID": "IT.TA.STUDYID", "Name": "STUDYID", "DataType": "text", "SASFieldName": "STUDYID", "Length": 7, "Description": {"TranslatedText": [{"lang": "en", "_content": "Study Identifier"}]}, "Origin": [{"Type": "Protocol", "Source": "Sponsor"}]}, {"OID": "IT.TA.DOMAIN", "Name": "DOMAIN", "DataType": "text", "SASFieldName": "DOMAIN", "Length": 2, "Description": {"TranslatedText": [{"lang": "en", "_content": "Domain Abbreviation"}]}, "CodeListRef": {"CodeListOID": "CL.TA.DOMAIN"}, "Origin": [{"Type": "Assigned", "Source": "Sponsor"}]}, {"OID": "IT.TA.ARMCD", "Name": "ARMCD", "DataType": "text", "SASFieldName": "ARMCD", "Length": 8, "Description": {"TranslatedText": [{"lang": "en", "_content": "Planned Arm Code"}]}, "CodeListRef": {"CodeListOID": "CL.ARMCD"}, "Origin": [{"Type": "Assigned", "Source": "Sponsor"}]}, {"OID": "IT.TA.ARM", "Name": "ARM", "DataType": "text", "SASFieldName": "ARM", "Length": 20, "Description": {"TranslatedText": [{"lang": "en", "_content": "Description of Planned Arm"}]}, "CodeListRef": {"CodeListOID": "CL.ARM"}, "Origin": [{"Type": "Protocol", "Source": "Sponsor"}]}, {"OID": "IT.TA.TAETORD", "Name": "TAETORD", "DataType": "integer", "SASFieldName": "TAETORD", "Length": 1, "Description": {"TranslatedText": [{"lang": "en", "_content": "Order of Element within Arm"}]}, "Origin": [{"Type": "Assigned", "Source": "Sponsor"}]}, {"OID": "IT.TA.ETCD", "Name": "ETCD", "DataType": "text", "SASFieldName": "ETCD", "Length": 8, "Description": {"TranslatedText": [{"lang": "en", "_content": "Element Code"}]}, "Origin": [{"Type": "Assigned", "Source": "Sponsor"}]}, {"OID": "IT.TA.ELEMENT", "Name": "ELEMENT", "DataType": "text", "SASFieldName": "ELEMENT", "Length": 40, "Description": {"TranslatedText": [{"lang": "en", "_content": "Description of Element"}]}, "Origin": [{"Type": "Protocol", "Source": "Sponsor"}]}, {"OID": "IT.TA.TABRANCH", "Name": "TABRANCH", "DataType": "text", "SASFieldName": "TABRANCH", "Length": 35, "Description": {"TranslatedText": [{"lang": "en", "_content": "Branch"}]}, "Origin": [{"Type": "Protocol", "Source": "Sponsor"}]}, {"OID": "IT.TA.TATRANS", "Name": "TATRANS", "DataType": "text", "SASFieldName": "TATRANS", "Length": 1, "Description": {"TranslatedText": [{"lang": "en", "_content": "Transition Rule"}]}, "Origin": [{"Type": "Protocol", "Source": "Sponsor"}]}, {"OID": "IT.TA.EPOCH", "Name": "EPOCH", "DataType": "text", "SASFieldName": "EPOCH", "Length": 30, "Description": {"TranslatedText": [{"lang": "en", "_content": "Epoch"}]}, "Origin": [{"Type": "Protocol", "Source": "Sponsor"}]}, {"OID": "IT.TE.STUDYID", "Name": "STUDYID", "DataType": "text", "SASFieldName": "STUDYID", "Length": 7, "Description": {"TranslatedText": [{"lang": "en", "_content": "Study Identifier"}]}, "Origin": [{"Type": "Protocol", "Source": "Sponsor"}]}, {"OID": "IT.TE.DOMAIN", "Name": "DOMAIN", "DataType": "text", "SASFieldName": "DOMAIN", "Length": 2, "Description": {"TranslatedText": [{"lang": "en", "_content": "Domain Abbreviation"}]}, "CodeListRef": {"CodeListOID": "CL.TE.DOMAIN"}, "Origin": [{"Type": "Assigned", "Source": "Sponsor"}]}, {"OID": "IT.TE.ETCD", "Name": "ETCD", "DataType": "text", "SASFieldName": "ETCD", "Length": 8, "Description": {"TranslatedText": [{"lang": "en", "_content": "Element Code"}]}, "Origin": [{"Type": "Assigned", "Source": "Sponsor"}]}, {"OID": "IT.TE.ELEMENT", "Name": "ELEMENT", "DataType": "text", "SASFieldName": "ELEMENT", "Length": 40, "Description": {"TranslatedText": [{"lang": "en", "_content": "Description of Element"}]}, "Origin": [{"Type": "Protocol", "Source": "Sponsor"}]}, {"OID": "IT.TE.TESTRL", "Name": "TESTRL", "DataType": "text", "SASFieldName": "TESTRL", "Length": 24, "Description": {"TranslatedText": [{"lang": "en", "_content": "Rule for Start of Element"}]}, "Origin": [{"Type": "Protocol", "Source": "Sponsor"}]}, {"OID": "IT.TE.TEDUR", "Name": "TEDUR", "DataType": "text", "SASFieldName": "TEDUR", "Length": 4, "Description": {"TranslatedText": [{"lang": "en", "_content": "Planned Duration of Element"}]}, "Origin": [{"Type": "Protocol", "Source": "Sponsor"}]}, {"OID": "IT.TI.STUDYID", "Name": "STUDYID", "DataType": "text", "SASFieldName": "STUDYID", "Length": 7, "Description": {"TranslatedText": [{"lang": "en", "_content": "Study Identifier"}]}, "Origin": [{"Type": "Protocol", "Source": "Sponsor"}]}, {"OID": "IT.TI.DOMAIN", "Name": "DOMAIN", "DataType": "text", "SASFieldName": "DOMAIN", "Length": 2, "Description": {"TranslatedText": [{"lang": "en", "_content": "Domain Abbreviation"}]}, "CodeListRef": {"CodeListOID": "CL.TI.DOMAIN"}, "Origin": [{"Type": "Assigned", "Source": "Sponsor"}]}, {"OID": "IT.TI.IETESTCD", "Name": "IETESTCD", "DataType": "text", "SASFieldName": "IETESTCD", "Length": 6, "Description": {"TranslatedText": [{"lang": "en", "_content": "Incl/Excl Criterion Short Name"}]}, "CodeListRef": {"CodeListOID": "CL.IETESTCD"}, "Origin": [{"Type": "Assigned", "Source": "Sponsor"}]}, {"OID": "IT.TI.IETEST", "Name": "IETEST", "DataType": "text", "SASFieldName": "IETEST", "Length": 92, "Description": {"TranslatedText": [{"lang": "en", "_content": "Inclusion/Exclusion Criterion"}]}, "CodeListRef": {"CodeListOID": "CL.IETEST"}, "Origin": [{"Type": "Collected", "Source": "Investigator", "DocumentRef": 