<?xml version='1.0' encoding='utf-8'?>
<ODM FileOID="ODM.DEFINE21.360i.001" AsOfDateTime="2026-01-30T14:40:54.601355+00:00" CreationDateTime="2026-01-30T14:40:54.601370+00:00" ODMVersion="1.3.2" FileType="Snapshot" Originator="360i Define-XML Team" SourceSystem="odmlib" SourceSystemVersion="0.2" def:Context="Other" xmlns="http://www.cdisc.org/ns/odm/v1.3" xmlns:xs="http://www.w3.org/2001/XMLSchema-instance" xmlns:xml="http://www.w3.org/XML/1998/namespace" xmlns:xlink="http://www.w3.org/1999/xlink" xmlns:def="http://www.cdisc.org/ns/def/v2.1"><Study OID="ODM.LZZT - NEW.Version1.Design1"><GlobalVariables><StudyName>LZZT - NEW</StudyName><StudyDescription>Safety and Efficacy of the Xanomeline Transdermal Therapeutic System (TTS) in Patients with Mild to Moderate Alzheimer's Disease</StudyDescription><ProtocolName>LZZT - NEW</ProtocolName></GlobalVariables><MetaDataVersion OID="MDV.LZZT---NEW" Name="MDV LZZT - NEW" Description="Data Definitions for LZZT - NEW" def:DefineVersion="2.1.0"><def:Standards><def:Standard OID="ST.SDTMIG" Name="SDTMIG" Type="IG" Version="3.4" Status="FINAL" /><def:Standard OID="ST.SDTMCT" Name="CDISC/NCI" Type="CT" Version="2025-03-28" Status="FINAL" PublishingSet="SDTM" /></def:Standards><def:AnnotatedCRF><def:DocumentRef leafID="LF.acrf" /></def:AnnotatedCRF><def:ValueListDef OID="VL.SC.SCORRES"><ItemRef ItemOID="IT.SC.SCORRES.EDULEVEL" Mandatory="No"><def:WhereClauseRef WhereClauseOID="WC.SC.48924878" /></ItemRef><ItemRef ItemOID="IT.SC.SCORRES.EDUYRNUM" Mandatory="No"><def:WhereClauseRef WhereClauseOID="WC.SC.e7173a71" /></ItemRef></def:ValueListDef><def:ValueListDef OID="VL.SC.SCORRESU"><ItemRef ItemOID="IT.SC.SCORRESU.EDUYRNUM" Mandatory="No"><def:WhereClauseRef WhereClauseOID="WC.SC.5fc4562e" /></ItemRef></def:ValueListDef><def:ValueListDef OID="VL.VS.VSORRES"><ItemRef ItemOID="IT.VS.VSORRES.TEMP" Mandatory="No"><def:WhereClauseRef WhereClauseOID="WC.VS.df8e6ed8" /></ItemRef><ItemRef ItemOID="IT.VS.VSORRES.WEIGHT" Mandatory="No"><def:WhereClauseRef WhereClauseOID="WC.VS.362bc1cf" /></ItemRef><ItemRef ItemOID="IT.VS.VSORRES.HEIGHT" Mandatory="No"><def:WhereClauseRef WhereClauseOID="WC.VS.22da90ca" /></ItemRef><ItemRef ItemOID="IT.VS.VSORRES.PULSE" Mandatory="No"><def:WhereClauseRef WhereClauseOID="WC.VS.90269389" /></ItemRef><ItemRef ItemOID="IT.VS.VSORRES.RESP" Mandatory="No"><def:WhereClauseRef WhereClauseOID="WC.VS.02e0f161" /></ItemRef><ItemRef ItemOID="IT.VS.VSORRES.BMI" Mandatory="No"><def:WhereClauseRef WhereClauseOID="WC.VS.ba9d17a7" /></ItemRef><ItemRef ItemOID="IT.VS.VSORRES.SYSBP" Mandatory="No"><def:WhereClauseRef WhereClauseOID="WC.VS.037b6848" /></ItemRef><ItemRef ItemOID="IT.VS.VSORRES.DIABP" Mandatory="No"><def:WhereClauseRef WhereClauseOID="WC.VS.fe755a11" /></ItemRef><ItemRef ItemOID="IT.VS.VSORRES.HR" Mandatory="No"><def:WhereClauseRef WhereClauseOID="WC.VS.324e0cc0" /></ItemRef></def:ValueListDef><def:ValueListDef OID="VL.VS.VSORRESU"><ItemRef ItemOID="IT.VS.VSORRESU.TEMP" Mandatory="No"><def:WhereClauseRef WhereClauseOID="WC.VS.dea56915" /></ItemRef><ItemRef ItemOID="IT.VS.VSORRESU.WEIGHT" Mandatory="No"><def:WhereClauseRef WhereClauseOID="WC.VS.ef959fbb" /></ItemRef><ItemRef ItemOID="IT.VS.VSORRESU.HEIGHT" Mandatory="No"><def:WhereClauseRef WhereClauseOID="WC.VS.97262f9f" /></ItemRef><ItemRef ItemOID="IT.VS.VSORRESU.PULSE" Mandatory="No"><def:WhereClauseRef WhereClauseOID="WC.VS.2fad3005" /></ItemRef><ItemRef ItemOID="IT.VS.VSORRESU.RESP" Mandatory="No"><def:WhereClauseRef WhereClauseOID="WC.VS.f296848d" /></ItemRef><ItemRef ItemOID="IT.VS.VSORRESU.BMI" Mandatory="No"><def:WhereClauseRef WhereClauseOID="WC.VS.ca4251ba" /></ItemRef><ItemRef ItemOID="IT.VS.VSORRESU.SYSBP" Mandatory="No"><def:WhereClauseRef WhereClauseOID="WC.VS.301c7ee3" /></ItemRef><ItemRef ItemOID="IT.VS.VSORRESU.DIABP" Mandatory="No"><def:WhereClauseRef WhereClauseOID="WC.VS.714dfc07" /></ItemRef><ItemRef ItemOID="IT.VS.VSORRESU.HR" Mandatory="No"><def:WhereClauseRef WhereClauseOID="WC.VS.5a9c1ab0" /></ItemRef></def:ValueListDef><def:ValueListDef OID="VL.EG.EGORRES"><ItemRef ItemOID="IT.EG.EGORRES.INTP" Mandatory="No"><def:WhereClauseRef WhereClauseOID="WC.EG.f60b99cb" /></ItemRef><ItemRef ItemOID="IT.EG.EGORRES.AVCOND" Mandatory="No"><def:WhereClauseRef WhereClauseOID="WC.EG.d30401ba" /></ItemRef><ItemRef ItemOID="IT.EG.EGORRES.AXISVOLT" Mandatory="No"><def:WhereClauseRef WhereClauseOID="WC.EG.0764363d" /></ItemRef><ItemRef ItemOID="IT.EG.EGORRES.CHYPTENL" Mandatory="No"><def:WhereClauseRef WhereClauseOID="WC.EG.c7ca2c0d" /></ItemRef><ItemRef ItemOID="IT.EG.EGORRES.TECHQUAL" Mandatory="No"><def:WhereClauseRef WhereClauseOID="WC.EG.0110957e" /></ItemRef><ItemRef ItemOID="IT.EG.EGORRES.IVTIACD" Mandatory="No"><def:WhereClauseRef WhereClauseOID="WC.EG.7a2cbb17" /></ItemRef><ItemRef ItemOID="IT.EG.EGORRES.PACEMAKR" Mandatory="No"><def:WhereClauseRef WhereClauseOID="WC.EG.c82f004b" /></ItemRef><ItemRef ItemOID="IT.EG.EGORRES.RHYNOS" Mandatory="No"><def:WhereClauseRef WhereClauseOID="WC.EG.aaf51dd5" /></ItemRef><ItemRef ItemOID="IT.EG.EGORRES.SNRARRY" Mandatory="No"><def:WhereClauseRef WhereClauseOID="WC.EG.0a478649" /></ItemRef><ItemRef ItemOID="IT.EG.EGORRES.SPRARRY" Mandatory="No"><def:WhereClauseRef WhereClauseOID="WC.EG.44c12ce4" /></ItemRef><ItemRef ItemOID="IT.EG.EGORRES.SPRTARRY" Mandatory="No"><def:WhereClauseRef WhereClauseOID="WC.EG.7c9fb72d" /></ItemRef><ItemRef ItemOID="IT.EG.EGORRES.VTARRY" Mandatory="No"><def:WhereClauseRef WhereClauseOID="WC.EG.3a146a53" /></ItemRef><ItemRef ItemOID="IT.EG.EGORRES.VTTARRY" Mandatory="No"><def:WhereClauseRef WhereClauseOID="WC.EG.5571a969" /></ItemRef><ItemRef ItemOID="IT.EG.EGORRES.PRAG" Mandatory="No"><def:WhereClauseRef WhereClauseOID="WC.EG.13a9fd00" /></ItemRef><ItemRef ItemOID="IT.EG.EGORRES.QRSAG" Mandatory="No"><def:WhereClauseRef WhereClauseOID="WC.EG.72304c3a" /></ItemRef><ItemRef ItemOID="IT.EG.EGORRES.QTAG" Mandatory="No"><def:WhereClauseRef WhereClauseOID="WC.EG.6f155b1d" /></ItemRef><ItemRef ItemOID="IT.EG.EGORRES.QTCBAG" Mandatory="No"><def:WhereClauseRef WhereClauseOID="WC.EG.dff815c6" /></ItemRef><ItemRef ItemOID="IT.EG.EGORRES.QTCFAG" Mandatory="No"><def:WhereClauseRef WhereClauseOID="WC.EG.e967e1e7" /></ItemRef><ItemRef ItemOID="IT.EG.EGORRES.RRAG" Mandatory="No"><def:WhereClauseRef WhereClauseOID="WC.EG.64f26102" /></ItemRef><ItemRef ItemOID="IT.EG.EGORRES.EGHRMN" Mandatory="No"><def:WhereClauseRef WhereClauseOID="WC.EG.2ecbdce2" /></ItemRef><ItemRef ItemOID="IT.EG.EGORRES.QRS_AXIS" Mandatory="No"><def:WhereClauseRef WhereClauseOID="WC.EG.9ce29aa6" /></ItemRef></def:ValueListDef><def:ValueListDef OID="VL.EG.EGORRESU"><ItemRef ItemOID="IT.EG.EGORRESU.PRAG" Mandatory="No"><def:WhereClauseRef WhereClauseOID="WC.EG.cec16291" /></ItemRef><ItemRef ItemOID="IT.EG.EGORRESU.QRSAG" Mandatory="No"><def:WhereClauseRef WhereClauseOID="WC.EG.5a1ab0f5" /></ItemRef><ItemRef ItemOID="IT.EG.EGORRESU.QTAG" Mandatory="No"><def:WhereClauseRef WhereClauseOID="WC.EG.ddb86367" /></ItemRef><ItemRef ItemOID="IT.EG.EGORRESU.QTCBAG" Mandatory="No"><def:WhereClauseRef WhereClauseOID="WC.EG.e847517c" /></ItemRef><ItemRef ItemOID="IT.EG.EGORRESU.QTCFAG" Mandatory="No"><def:WhereClauseRef WhereClauseOID="WC.EG.7f463007" /></ItemRef><ItemRef ItemOID="IT.EG.EGORRESU.RRAG" Mandatory="No"><def:WhereClauseRef WhereClauseOID="WC.EG.3d1ba9c3" /></ItemRef><ItemRef ItemOID="IT.EG.EGORRESU.EGHRMN" Mandatory="No"><def:WhereClauseRef WhereClauseOID="WC.EG.a40eb46d" /></ItemRef><ItemRef ItemOID="IT.EG.EGORRESU.QRS_AXIS" Mandatory="No"><def:WhereClauseRef WhereClauseOID="WC.EG.02ebb46f" /></ItemRef></def:ValueListDef><def:ValueListDef OID="VL.LB.LBORRES"><ItemRef ItemOID="IT.LB.LBORRES.HGB" Mandatory="No"><def:WhereClauseRef WhereClauseOID="WC.LB.c192b07f" /></ItemRef><ItemRef ItemOID="IT.LB.LBORRES.HCT" Mandatory="No"><def:WhereClauseRef WhereClauseOID="WC.LB.82b97100" /></ItemRef><ItemRef ItemOID="IT.LB.LBORRES.RBC" Mandatory="No"><def:WhereClauseRef WhereClauseOID="WC.LB.87582e25" /></ItemRef><ItemRef ItemOID="IT.LB.LBORRES.MCH" Mandatory="No"><def:WhereClauseRef WhereClauseOID="WC.LB.95f4de22" /></ItemRef><ItemRef ItemOID="IT.LB.LBORRES.MCHC" Mandatory="No"><def:WhereClauseRef WhereClauseOID="WC.LB.92bd1f17" /></ItemRef><ItemRef ItemOID="IT.LB.LBORRES.MCV" Mandatory="No"><def:WhereClauseRef WhereClauseOID="WC.LB.24c0e2bc" /></ItemRef><ItemRef ItemOID="IT.LB.LBORRES.WBC" Mandatory="No"><def:WhereClauseRef WhereClauseOID="WC.LB.351df44b" /></ItemRef><ItemRef ItemOID="IT.LB.LBORRES.NEUTSG" Mandatory="No"><def:WhereClauseRef WhereClauseOID="WC.LB.5f2a0bab" /></ItemRef><ItemRef ItemOID="IT.LB.LBORRES.NEUTB" Mandatory="No"><def:WhereClauseRef WhereClauseOID="WC.LB.eea0ae49" /></ItemRef><ItemRef ItemOID="IT.LB.LBORRES.NEUT" Mandatory="No"><def:WhereClauseRef WhereClauseOID="WC.LB.550c7a01" /></ItemRef><ItemRef ItemOID="IT.LB.LBORRES.MONO" Mandatory="No"><def:WhereClauseRef WhereClauseOID="WC.LB.de4c119b" /></ItemRef><ItemRef ItemOID="IT.LB.LBORRES.EOS" Mandatory="No"><def:WhereClauseRef WhereClauseOID="WC.LB.a5684311" /></ItemRef><ItemRef ItemOID="IT.LB.LBORRES.BASO" Mandatory="No"><def:WhereClauseRef WhereClauseOID="WC.LB.7b86c15b" /></ItemRef><ItemRef ItemOID="IT.LB.LBORRES.PLAT" Mandatory="No"><def:WhereClauseRef WhereClauseOID="WC.LB.3a9d73e1" /></ItemRef><ItemRef ItemOID="IT.LB.LBORRES.MICROCY" Mandatory="No"><def:WhereClauseRef WhereClauseOID="WC.LB.ddc3319f" /></ItemRef><ItemRef ItemOID="IT.LB.LBORRES.MACROCY" Mandatory="No"><def:WhereClauseRef WhereClauseOID="WC.LB.116f85e4" /></ItemRef><ItemRef ItemOID="IT.LB.LBORRES.ANISO" Mandatory="No"><def:WhereClauseRef WhereClauseOID="WC.LB.84ceb0ad" /></ItemRef><ItemRef ItemOID="IT.LB.LBORRES.POIKILO" Mandatory="No"><def:WhereClauseRef WhereClauseOID="WC.LB.b622c728" /></ItemRef><ItemRef ItemOID="IT.LB.LBORRES.POLYCHR" Mandatory="No"><def:WhereClauseRef WhereClauseOID="WC.LB.87b1b367" /></ItemRef><ItemRef ItemOID="IT.LB.LBORRES.ALT" Mandatory="No"><def:WhereClauseRef WhereClauseOID="WC.LB.5412b298" /></ItemRef><ItemRef ItemOID="IT.LB.LBORRES.ALB" Mandatory="No"><def:WhereClauseRef WhereClauseOID="WC.LB.e42a3c09" /></ItemRef><ItemRef ItemOID="IT.LB.LBORRES.ALP" Mandatory="No"><def:WhereClauseRef WhereClauseOID="WC.LB.cdac7fcc" /></ItemRef><ItemRef ItemOID="IT.LB.LBORRES.AST" Mandatory="No"><def:WhereClauseRef WhereClauseOID="WC.LB.b9d7ddba" /></ItemRef><ItemRef ItemOID="IT.LB.LBORRES.CREAT" Mandatory="No"><def:WhereClauseRef WhereClauseOID="WC.LB.969c1a6d" /></ItemRef><ItemRef ItemOID="IT.LB.LBORRES.K" Mandatory="No"><def:WhereClauseRef WhereClauseOID="WC.LB.7ce691fd" /></ItemRef><ItemRef ItemOID="IT.LB.LBORRES.SODIUM" Mandatory="No"><def:WhereClauseRef WhereClauseOID="WC.LB.88601b52" /></ItemRef><ItemRef ItemOID="IT.LB.LBORRES.UREAN" Mandatory="No"><def:WhereClauseRef WhereClauseOID="WC.LB.42392cd1" /></ItemRef><ItemRef ItemOID="IT.LB.LBORRES.BICARB" Mandatory="No"><def:WhereClauseRef WhereClauseOID="WC.LB.9279ec22" /></ItemRef><ItemRef ItemOID="IT.LB.LBORRES.CL" Mandatory="No"><def:WhereClauseRef WhereClauseOID="WC.LB.8b779a3b" /></ItemRef><ItemRef ItemOID="IT.LB.LBORRES.BILI" Mandatory="No"><def:WhereClauseRef WhereClauseOID="WC.LB.cfe14422" /></ItemRef><ItemRef ItemOID="IT.LB.LBORRES.GGT" Mandatory="No"><def:WhereClauseRef WhereClauseOID="WC.LB.8285c765" /></ItemRef><ItemRef ItemOID="IT.LB.LBORRES.URATE" Mandatory="No"><def:WhereClauseRef WhereClauseOID="WC.LB.37c7b4ba" /></ItemRef><ItemRef ItemOID="IT.LB.LBORRES.PHOS" Mandatory="No"><def:WhereClauseRef WhereClauseOID="WC.LB.e4e81dc5" /></ItemRef><ItemRef ItemOID="IT.LB.LBORRES.CA" Mandatory="No"><def:WhereClauseRef WhereClauseOID="WC.LB.470def9b" /></ItemRef><ItemRef ItemOID="IT.LB.LBORRES.GLUC" Mandatory="No"><def:WhereClauseRef WhereClauseOID="WC.LB.c891c160" /></ItemRef><ItemRef ItemOID="IT.LB.LBORRES.PROT" Mandatory="No"><def:WhereClauseRef WhereClauseOID="WC.LB.abcfd20c" /></ItemRef><ItemRef ItemOID="IT.LB.LBORRES.CHOL" Mandatory="No"><def:WhereClauseRef WhereClauseOID="WC.LB.5a1bca67" /></ItemRef><ItemRef ItemOID="IT.LB.LBORRES.T3UP" Mandatory="No"><def:WhereClauseRef WhereClauseOID="WC.LB.4226ee02" /></ItemRef><ItemRef ItemOID="IT.LB.LBORRES.T3" Mandatory="No"><def:WhereClauseRef WhereClauseOID="WC.LB.df33e99e" /></ItemRef><ItemRef ItemOID="IT.LB.LBORRES.T4FR" Mandatory="No"><def:WhereClauseRef WhereClauseOID="WC.LB.30f3d8b3" /></ItemRef><ItemRef ItemOID="IT.LB.LBORRES.T4FRIDX" Mandatory="No"><def:WhereClauseRef WhereClauseOID="WC.LB.f59f4529" /></ItemRef><ItemRef ItemOID="IT.LB.LBORRES.TSH" Mandatory="No"><def:WhereClauseRef WhereClauseOID="WC.LB.c54221c6" /></ItemRef><ItemRef ItemOID="IT.LB.LBORRES.VITB9" Mandatory="No"><def:WhereClauseRef WhereClauseOID="WC.LB.cb02cad8" /></ItemRef><ItemRef ItemOID="IT.LB.LBORRES.VITB12" Mandatory="No"><def:WhereClauseRef WhereClauseOID="WC.LB.d0f49556" /></ItemRef><ItemRef ItemOID="IT.LB.LBORRES.COLOR" Mandatory="No"><def:WhereClauseRef WhereClauseOID="WC.LB.4987b41e" /></ItemRef><ItemRef ItemOID="IT.LB.LBORRES.SPGRAV" Mandatory="No"><def:WhereClauseRef WhereClauseOID="WC.LB.cbf789d8" /></ItemRef><ItemRef ItemOID="IT.LB.LBORRES.KETONES" Mandatory="No"><def:WhereClauseRef WhereClauseOID="WC.LB.3239d7a3" /></ItemRef><ItemRef ItemOID="IT.LB.LBORRES.UROBIL" Mandatory="No"><def:WhereClauseRef WhereClauseOID="WC.LB.59366afe" /></ItemRef><ItemRef ItemOID="IT.LB.LBORRES.OCCBLD" Mandatory="No"><def:WhereClauseRef WhereClauseOID="WC.LB.3adc4566" /></ItemRef><ItemRef ItemOID="IT.LB.LBORRES.NITRITE" Mandatory="No"><def:WhereClauseRef WhereClauseOID="WC.LB.59074de1" /></ItemRef><ItemRef ItemOID="IT.LB.LBORRES.HBA1C" Mandatory="No"><def:WhereClauseRef WhereClauseOID="WC.LB.c1765eee" /></ItemRef><ItemRef ItemOID="IT.LB.LBORRES.HBA1CHGB" Mandatory="No"><def:WhereClauseRef WhereClauseOID="WC.LB.dd459ec6" /></ItemRef></def:ValueListDef><def:ValueListDef OID="VL.LB.LBORRESU"><ItemRef ItemOID="IT.LB.LBORRESU.HGB" Mandatory="No"><def:WhereClauseRef WhereClauseOID="WC.LB.e9a1c33d" /></ItemRef><ItemRef ItemOID="IT.LB.LBORRESU.HCT" Mandatory="No"><def:WhereClauseRef WhereClauseOID="WC.LB.7f0975c7" /></ItemRef><ItemRef ItemOID="IT.LB.LBORRESU.RBC" Mandatory="No"><def:WhereClauseRef WhereClauseOID="WC.LB.f7f1de35" /></ItemRef><ItemRef ItemOID="IT.LB.LBORRESU.MCH" Mandatory="No"><def:WhereClauseRef WhereClauseOID="WC.LB.c32acb17" /></ItemRef><ItemRef ItemOID="IT.LB.LBORRESU.MCHC" Mandatory="No"><def:WhereClauseRef WhereClauseOID="WC.LB.eb7f048a" /></ItemRef><ItemRef ItemOID="IT.LB.LBORRESU.MCV" Mandatory="No"><def:WhereClauseRef WhereClauseOID="WC.LB.e881d4b5" /></ItemRef><ItemRef ItemOID="IT.LB.LBORRESU.WBC" Mandatory="No"><def:WhereClauseRef WhereClauseOID="WC.LB.41785be6" /></ItemRef><ItemRef ItemOID="IT.LB.LBORRESU.NEUTSG" Mandatory="No"><def:WhereClauseRef WhereClauseOID="WC.LB.a68e5eaa" /></ItemRef><ItemRef ItemOID="IT.LB.LBORRESU.NEUTB" Mandatory="No"><def:WhereClauseRef WhereClauseOID="WC.LB.aad6dbd6" /></ItemRef><ItemRef ItemOID="IT.LB.LBORRESU.NEUT" Mandatory="No"><def:WhereClauseRef WhereClauseOID="WC.LB.d13d6578" /></ItemRef><ItemRef ItemOID="IT.LB.LBORRESU.MONO" Mandatory="No"><def:WhereClauseRef WhereClauseOID="WC.LB.00e6d228" /></ItemRef><ItemRef ItemOID="IT.LB.LBORRESU.EOS" Mandatory="No"><def:WhereClauseRef WhereClauseOID="WC.LB.ef654de1" /></ItemRef><ItemRef ItemOID="IT.LB.LBORRESU.BASO" Mandatory="No"><def:WhereClauseRef WhereClauseOID="WC.LB.b6fa6e8d" /></ItemRef><ItemRef ItemOID="IT.LB.LBORRESU.PLAT" Mandatory="No"><def:WhereClauseRef WhereClauseOID="WC.LB.90eedf3b" /></ItemRef><ItemRef ItemOID="IT.LB.LBORRESU.ALT" Mandatory="No"><def:WhereClauseRef WhereClauseOID="WC.LB.8914eb45" /></ItemRef><ItemRef ItemOID="IT.LB.LBORRESU.ALP" Mandatory="No"><def:WhereClauseRef WhereClauseOID="WC.LB.6660e11c" /></ItemRef><ItemRef ItemOID="IT.LB.LBORRESU.AST" Mandatory="No"><def:WhereClauseRef WhereClauseOID="WC.LB.37e389df" /></ItemRef><ItemRef ItemOID="IT.LB.LBORRESU.CREAT" Mandatory="No"><def:WhereClauseRef WhereClauseOID="WC.LB.549f5ae4" /></ItemRef><ItemRef ItemOID="IT.LB.LBORRESU.K" Mandatory="No"><def:WhereClauseRef WhereClauseOID="WC.LB.ee634517" /></ItemRef><ItemRef ItemOID="IT.LB.LBORRESU.SODIUM" Mandatory="No"><def:WhereClauseRef WhereClauseOID="WC.LB.07a8daa1" /></ItemRef><ItemRef ItemOID="IT.LB.LBORRESU.UREAN" Mandatory="No"><def:WhereClauseRef WhereClauseOID="WC.LB.91d1c3d5" /></ItemRef><ItemRef ItemOID="IT.LB.LBORRESU.BICARB" Mandatory="No"><def:WhereClauseRef WhereClauseOID="WC.LB.9df0845c" /></ItemRef><ItemRef ItemOID="IT.LB.LBORRESU.CL" Mandatory="No"><def:WhereClauseRef WhereClauseOID="WC.LB.cc8b6004" /></ItemRef><ItemRef ItemOID="IT.LB.LBORRESU.GGT" Mandatory="No"><def:WhereClauseRef WhereClauseOID="WC.LB.3c564f36" /></ItemRef><ItemRef ItemOID="IT.LB.LBORRESU.URATE" Mandatory="No"><def:WhereClauseRef WhereClauseOID="WC.LB.13fbb1a5" /></ItemRef><ItemRef ItemOID="IT.LB.LBORRESU.PHOS" Mandatory="No"><def:WhereClauseRef WhereClauseOID="WC.LB.3749493c" /></ItemRef><ItemRef ItemOID="IT.LB.LBORRESU.CA" Mandatory="No"><def:WhereClauseRef WhereClauseOID="WC.LB.38f9f39d" /></ItemRef><ItemRef ItemOID="IT.LB.LBORRESU.CHOL" Mandatory="No"><def:WhereClauseRef WhereClauseOID="WC.LB.516f3664" /></ItemRef><ItemRef ItemOID="IT.LB.LBORRESU.T3UP" Mandatory="No"><def:WhereClauseRef WhereClauseOID="WC.LB.dcbcbe57" /></ItemRef><ItemRef ItemOID="IT.LB.LBORRESU.T3" Mandatory="No"><def:WhereClauseRef WhereClauseOID="WC.LB.b7b215a1" /></ItemRef><ItemRef ItemOID="IT.LB.LBORRESU.T4FR" Mandatory="No"><def:WhereClauseRef WhereClauseOID="WC.LB.0f071538" /></ItemRef><ItemRef ItemOID="IT.LB.LBORRESU.T4FRIDX" Mandatory="No"><def:WhereClauseRef WhereClauseOID="WC.LB.258e657c" /></ItemRef><ItemRef ItemOID="IT.LB.LBORRESU.TSH" Mandatory="No"><def:WhereClauseRef WhereClauseOID="WC.LB.d675561c" /></ItemRef><ItemRef ItemOID="IT.LB.LBORRESU.VITB9" Mandatory="No"><def:WhereClauseRef WhereClauseOID="WC.LB.e81938d6" /></ItemRef><ItemRef ItemOID="IT.LB.LBORRESU.VITB12" Mandatory="No"><def:WhereClauseRef WhereClauseOID="WC.LB.54dda2d1" /></ItemRef><ItemRef ItemOID="IT.LB.LBORRESU.UROBIL" Mandatory="No"><def:WhereClauseRef WhereClauseOID="WC.LB.e6a434ec" /></ItemRef><ItemRef ItemOID="IT.LB.LBORRESU.HBA1C" Mandatory="No"><def:WhereClauseRef WhereClauseOID="WC.LB.9e9118c8" /></ItemRef><ItemRef ItemOID="IT.LB.LBORRESU.HBA1CHGB" Mandatory="No"><def:WhereClauseRef WhereClauseOID="WC.LB.8644d9ca" /></ItemRef></def:ValueListDef><def:ValueListDef OID="VL.MB.MBORRES"><ItemRef ItemOID="IT.MB.MBORRES.TPLAB" Mandatory="No"><def:WhereClauseRef WhereClauseOID="WC.MB.49773274" /></ItemRef><ItemRef ItemOID="IT.MB.MBORRES.TPADNA" Mandatory="No"><def:WhereClauseRef WhereClauseOID="WC.MB.e698c5a2" /></ItemRef></def:ValueListDef><def:ValueListDef OID="VL.IE.IEORRES"><ItemRef ItemOID="IT.IE.IEORRES.IN01" Mandatory="No"><def:WhereClauseRef WhereClauseOID="WC.IE.1d2bb25f" /></ItemRef><ItemRef ItemOID="IT.IE.IEORRES.IN02" Mandatory="No"><def:WhereClauseRef WhereClauseOID="WC.IE.fa688bf3" /></ItemRef><ItemRef ItemOID="IT.IE.IEORRES.IN03" Mandatory="No"><def:WhereClauseRef WhereClauseOID="WC.IE.f276b607" /></ItemRef><ItemRef ItemOID="IT.IE.IEORRES.IN04" Mandatory="No"><def:WhereClauseRef WhereClauseOID="WC.IE.cd528448" /></ItemRef><ItemRef ItemOID="IT.IE.IEORRES.IN05" Mandatory="No"><def:WhereClauseRef WhereClauseOID="WC.IE.c1db3fd3" /></ItemRef><ItemRef ItemOID="IT.IE.IEORRES.IN06" Mandatory="No"><def:WhereClauseRef WhereClauseOID="WC.IE.c2ec614b" /></ItemRef><ItemRef ItemOID="IT.IE.IEORRES.IN07" Mandatory="No"><def:WhereClauseRef WhereClauseOID="WC.IE.2ef341aa" /></ItemRef><ItemRef ItemOID="IT.IE.IEORRES.IN08" Mandatory="No"><def:WhereClauseRef WhereClauseOID="WC.IE.5d85184b" /></ItemRef><ItemRef ItemOID="IT.IE.IEORRES.EX01" Mandatory="No"><def:WhereClauseRef WhereClauseOID="WC.IE.8579104c" /></ItemRef><ItemRef ItemOID="IT.IE.IEORRES.EX02" Mandatory="No"><def:WhereClauseRef WhereClauseOID="WC.IE.74eacc45" /></ItemRef><ItemRef ItemOID="IT.IE.IEORRES.EX03" Mandatory="No"><def:WhereClauseRef WhereClauseOID="WC.IE.ce0e8d09" /></ItemRef><ItemRef ItemOID="IT.IE.IEORRES.EX04" Mandatory="No"><def:WhereClauseRef WhereClauseOID="WC.IE.945bafbd" /></ItemRef><ItemRef ItemOID="IT.IE.IEORRES.EX05" Mandatory="No"><def:WhereClauseRef WhereClauseOID="WC.IE.afbec960" /></ItemRef><ItemRef ItemOID="IT.IE.IEORRES.EX06" Mandatory="No"><def:WhereClauseRef WhereClauseOID="WC.IE.cac0d3f4" /></ItemRef><ItemRef ItemOID="IT.IE.IEORRES.EX07" Mandatory="No"><def:WhereClauseRef WhereClauseOID="WC.IE.cabd9be0" /></ItemRef><ItemRef ItemOID="IT.IE.IEORRES.EX08" Mandatory="No"><def:WhereClauseRef WhereClauseOID="WC.IE.fbae7983" /></ItemRef><ItemRef ItemOID="IT.IE.IEORRES.EX09" Mandatory="No"><def:WhereClauseRef WhereClauseOID="WC.IE.0952c014" /></ItemRef><ItemRef ItemOID="IT.IE.IEORRES.EX10" Mandatory="No"><def:WhereClauseRef WhereClauseOID="WC.IE.5b8b02b2" /></ItemRef><ItemRef ItemOID="IT.IE.IEORRES.EX11" Mandatory="No"><def:WhereClauseRef WhereClauseOID="WC.IE.70a941e7" /></ItemRef><ItemRef ItemOID="IT.IE.IEORRES.EX12" Mandatory="No"><def:WhereClauseRef WhereClauseOID="WC.IE.611f5d7b" /></ItemRef><ItemRef ItemOID="IT.IE.IEORRES.EX13" Mandatory="No"><def:WhereClauseRef WhereClauseOID="WC.IE.8abff918" /></ItemRef><ItemRef ItemOID="IT.IE.IEORRES.EX14" Mandatory="No"><def:WhereClauseRef WhereClauseOID="WC.IE.b089a2a0" /></ItemRef><ItemRef ItemOID="IT.IE.IEORRES.EX15" Mandatory="No"><def:WhereClauseRef WhereClauseOID="WC.IE.39cb2456" /></ItemRef><ItemRef ItemOID="IT.IE.IEORRES.EX16" Mandatory="No"><def:WhereClauseRef WhereClauseOID="WC.IE.2cdb5c18" /></ItemRef><ItemRef ItemOID="IT.IE.IEORRES.EX17" Mandatory="No"><def:WhereClauseRef WhereClauseOID="WC.IE.b415f3a9" /></ItemRef><ItemRef ItemOID="IT.IE.IEORRES.EX18" Mandatory="No"><def:WhereClauseRef WhereClauseOID="WC.IE.5c29f970" /></ItemRef><ItemRef ItemOID="IT.IE.IEORRES.EX19" Mandatory="No"><def:WhereClauseRef WhereClauseOID="WC.IE.9fe9a358" /></ItemRef><ItemRef ItemOID="IT.IE.IEORRES.EX20" Mandatory="No"><def:WhereClauseRef WhereClauseOID="WC.IE.e36b210b" /></ItemRef><ItemRef ItemOID="IT.IE.IEORRES.EX21" Mandatory="No"><def:WhereClauseRef WhereClauseOID="WC.IE.743b4fb5" /></ItemRef><ItemRef ItemOID="IT.IE.IEORRES.EX22" Mandatory="No"><def:WhereClauseRef WhereClauseOID="WC.IE.76a82754" /></ItemRef><ItemRef ItemOID="IT.IE.IEORRES.EX23" Mandatory="No"><def:WhereClauseRef WhereClauseOID="WC.IE.fbeb5a1e" /></ItemRef></def:ValueListDef><def:ValueListDef OID="VL.SE.SEENDTC"><ItemRef ItemOID="IT.SE.SEENDTC.EL1" Mandatory="No"><def:WhereClauseRef WhereClauseOID="WC.SE.4566c7e6" /></ItemRef><ItemRef ItemOID="IT.SE.SEENDTC.EL2" Mandatory="No"><def:WhereClauseRef WhereClauseOID="WC.SE.a172aab3" /></ItemRef><ItemRef ItemOID="IT.SE.SEENDTC.EL7" Mandatory="No"><def:WhereClauseRef WhereClauseOID="WC.SE.7fb0f4fe" /></ItemRef><ItemRef ItemOID="IT.SE.SEENDTC.EL3" Mandatory="No"><def:WhereClauseRef WhereClauseOID="WC.SE.8edcd91c" /></ItemRef><ItemRef ItemOID="IT.SE.SEENDTC.EL4" Mandatory="No"><def:WhereClauseRef WhereClauseOID="WC.SE.8a354977" /></ItemRef><ItemRef ItemOID="IT.SE.SEENDTC.EL5" Mandatory="No"><def:WhereClauseRef WhereClauseOID="WC.SE.be405067" /></ItemRef><ItemRef ItemOID="IT.SE.SEENDTC.EL6" Mandatory="No"><def:WhereClauseRef WhereClauseOID="WC.SE.ac9f11bb" /></ItemRef></def:ValueListDef><def:ValueListDef OID="VL.SE.SESTDTC"><ItemRef ItemOID="IT.SE.SESTDTC.EL1" Mandatory="No"><def:WhereClauseRef WhereClauseOID="WC.SE.ef0bfe06" /></ItemRef><ItemRef ItemOID="IT.SE.SESTDTC.EL2" Mandatory="No"><def:WhereClauseRef WhereClauseOID="WC.SE.fd73ada9" /></ItemRef><ItemRef ItemOID="IT.SE.SESTDTC.EL7" Mandatory="No"><def:WhereClauseRef WhereClauseOID="WC.SE.7f36565b" /></ItemRef><ItemRef ItemOID="IT.SE.SESTDTC.EL3" Mandatory="No"><def:WhereClauseRef WhereClauseOID="WC.SE.e02c83c0" /></ItemRef><ItemRef ItemOID="IT.SE.SESTDTC.EL4" Mandatory="No"><def:WhereClauseRef WhereClauseOID="WC.SE.0f456498" /></ItemRef><ItemRef ItemOID="IT.SE.SESTDTC.EL5" Mandatory="No"><def:WhereClauseRef WhereClauseOID="WC.SE.64e8e407" /></ItemRef><ItemRef ItemOID="IT.SE.SESTDTC.EL6" Mandatory="No"><def:WhereClauseRef WhereClauseOID="WC.SE.8d2f7b81" /></ItemRef></def:ValueListDef><def:WhereClauseDef OID="WC.SC.48924878"><RangeCheck SoftHard="Soft" def:ItemOID="IT.SC.SCTESTCD" Comparator="EQ"><CheckValue>EDULEVEL</CheckValue></RangeCheck></def:WhereClauseDef><def:WhereClauseDef OID="WC.SC.e7173a71"><RangeCheck SoftHard="Soft" def:ItemOID="IT.SC.SCTESTCD" Comparator="EQ"><CheckValue>EDUYRNUM</CheckValue></RangeCheck></def:WhereClauseDef><def:WhereClauseDef OID="WC.SC.5fc4562e"><RangeCheck SoftHard="Soft" def:ItemOID="IT.SC.SCTESTCD" Comparator="EQ"><CheckValue>EDUYRNUM</CheckValue></RangeCheck></def:WhereClauseDef><def:WhereClauseDef OID="WC.VS.df8e6ed8"><RangeCheck SoftHard="Soft" def:ItemOID="IT.VS.VSTESTCD" Comparator="EQ"><CheckValue>TEMP</CheckValue></RangeCheck><RangeCheck SoftHard="Soft" def:ItemOID="IT.VS.VSLOC" Comparator="IN"><CheckValue>AXILLA</CheckValue><CheckValue>EAR</CheckValue><CheckValue>FOREHEAD</CheckValue><CheckValue>ORAL CAVITY</CheckValue><CheckValue>RECTUM</CheckValue></RangeCheck></def:WhereClauseDef><def:WhereClauseDef OID="WC.VS.362bc1cf"><RangeCheck SoftHard="Soft" def:ItemOID="IT.VS.VSTESTCD" Comparator="EQ"><CheckValue>WEIGHT</CheckValue></RangeCheck></def:WhereClauseDef><def:WhereClauseDef OID="WC.VS.22da90ca"><RangeCheck SoftHard="Soft" def:ItemOID="IT.VS.VSTESTCD" Comparator="EQ"><CheckValue>HEIGHT</CheckValue></RangeCheck></def:WhereClauseDef><def:WhereClauseDef OID="WC.VS.90269389"><RangeCheck SoftHard="Soft" def:ItemOID="IT.VS.VSTESTCD" Comparator="EQ"><CheckValue>PULSE</CheckValue></RangeCheck><RangeCheck SoftHard="Soft" def:ItemOID="IT.VS.VSPOS" Comparator="IN"><CheckValue>PRONE</CheckValue><CheckValue>SEMI-RECUMBENT</CheckValue><CheckValue>SITTING</CheckValue><CheckValue>STANDING</CheckValue><CheckValue>SUPINE</CheckValue></RangeCheck><RangeCheck SoftHard="Soft" def:ItemOID="IT.VS.VSLOC" Comparator="IN"><CheckValue>BRACHIAL ARTERY</CheckValue><CheckValue>CAROTID ARTERY</CheckValue><CheckValue>CEREBRAL ARTERY</CheckValue><CheckValue>DORSALIS PEDIS ARTERY</CheckValue><CheckValue>FEMORAL ARTERY</CheckValue><CheckValue>RADIAL ARTERY</CheckValue></RangeCheck><RangeCheck SoftHard="Soft" def:ItemOID="IT.VS.VSLAT" Comparator="IN"><CheckValue>LEFT</CheckValue><CheckValue>RIGHT</CheckValue></RangeCheck></def:WhereClauseDef><def:WhereClauseDef OID="WC.VS.02e0f161"><RangeCheck SoftHard="Soft" def:ItemOID="IT.VS.VSTESTCD" Comparator="EQ"><CheckValue>RESP</CheckValue></RangeCheck></def:WhereClauseDef><def:WhereClauseDef OID="WC.VS.ba9d17a7"><RangeCheck SoftHard="Soft" def:ItemOID="IT.VS.VSTESTCD" Comparator="EQ"><CheckValue>BMI</CheckValue></RangeCheck></def:WhereClauseDef><def:WhereClauseDef OID="WC.VS.037b6848"><RangeCheck SoftHard="Soft" def:ItemOID="IT.VS.VSTESTCD" Comparator="EQ"><CheckValue>SYSBP</CheckValue></RangeCheck><RangeCheck SoftHard="Soft" def:ItemOID="IT.VS.VSPOS" Comparator="IN"><CheckValue>PRONE</CheckValue><CheckValue>SEMI-RECUMBENT</CheckValue><CheckValue>SITTING</CheckValue><CheckValue>STANDING</CheckValue><CheckValue>SUPINE</CheckValue></RangeCheck><RangeCheck SoftHard="Soft" def:ItemOID="IT.VS.VSLOC" Comparator="IN"><CheckValue>BRACHIAL ARTERY</CheckValue><CheckValue>CAROTID ARTERY</CheckValue><CheckValue>DORSALIS PEDIS ARTERY</CheckValue><CheckValue>FEMORAL ARTERY</CheckValue><CheckValue>FINGER</CheckValue><CheckValue>RADIAL ARTERY</CheckValue></RangeCheck><RangeCheck SoftHard="Soft" def:ItemOID="IT.VS.VSLAT" Comparator="IN"><CheckValue>LEFT</CheckValue><CheckValue>RIGHT</CheckValue></RangeCheck></def:WhereClauseDef><def:WhereClauseDef OID="WC.VS.fe755a11"><RangeCheck SoftHard="Soft" def:ItemOID="IT.VS.VSTESTCD" Comparator="EQ"><CheckValue>DIABP</CheckValue></RangeCheck><RangeCheck SoftHard="Soft" def:ItemOID="IT.VS.VSPOS" Comparator="IN"><CheckValue>PRONE</CheckValue><CheckValue>SEMI-RECUMBENT</CheckValue><CheckValue>SITTING</CheckValue><CheckValue>STANDING</CheckValue><CheckValue>SUPINE</CheckValue></RangeCheck><RangeCheck SoftHard="Soft" def:ItemOID="IT.VS.VSLOC" Comparator="IN"><CheckValue>BRACHIAL ARTERY</CheckValue><CheckValue>CAROTID ARTERY</CheckValue><CheckValue>DORSALIS PEDIS ARTERY</CheckValue><CheckValue>FEMORAL ARTERY</CheckValue><CheckValue>FINGER</CheckValue><CheckValue>RADIAL ARTERY</CheckValue></RangeCheck><RangeCheck SoftHard="Soft" def:ItemOID="IT.VS.VSLAT" Comparator="IN"><CheckValue>LEFT</CheckValue><CheckValue>RIGHT</CheckValue></RangeCheck></def:WhereClauseDef><def:WhereClauseDef OID="WC.VS.324e0cc0"><RangeCheck SoftHard="Soft" def:ItemOID="IT.VS.VSTESTCD" Comparator="EQ"><CheckValue>HR</CheckValue></RangeCheck><RangeCheck SoftHard="Soft" def:ItemOID="IT.VS.VSPOS" Comparator="IN"><CheckValue>PRONE</CheckValue><CheckValue>SEMI-RECUMBENT</CheckValue><CheckValue>SITTING</CheckValue><CheckValue>STANDING</CheckValue><CheckValue>SUPINE</CheckValue></RangeCheck><RangeCheck SoftHard="Soft" def:ItemOID="IT.VS.VSLOC" Comparator="IN"><CheckValue>BRACHIAL ARTERY</CheckValue><CheckValue>CAROTID ARTERY</CheckValue><CheckValue>CEREBRAL ARTERY</CheckValue><CheckValue>DORSALIS PEDIS ARTERY</CheckValue><CheckValue>FEMORAL ARTERY</CheckValue><CheckValue>RADIAL ARTERY</CheckValue></RangeCheck><RangeCheck SoftHard="Soft" def:ItemOID="IT.VS.VSLAT" Comparator="IN"><CheckValue>LEFT</CheckValue><CheckValue>RIGHT</CheckValue></RangeCheck></def:WhereClauseDef><def:WhereClauseDef OID="WC.VS.dea56915"><RangeCheck SoftHard="Soft" def:ItemOID="IT.VS.VSTESTCD" Comparator="EQ"><CheckValue>TEMP</CheckValue></RangeCheck><RangeCheck SoftHard="Soft" def:ItemOID="IT.VS.VSLOC" Comparator="IN"><CheckValue>AXILLA</CheckValue><CheckValue>EAR</CheckValue><CheckValue>FOREHEAD</CheckValue><CheckValue>ORAL CAVITY</CheckValue><CheckValue>RECTUM</CheckValue></RangeCheck></def:WhereClauseDef><def:WhereClauseDef OID="WC.VS.ef959fbb"><RangeCheck SoftHard="Soft" def:ItemOID="IT.VS.VSTESTCD" Comparator="EQ"><CheckValue>WEIGHT</CheckValue></RangeCheck></def:WhereClauseDef><def:WhereClauseDef OID="WC.VS.97262f9f"><RangeCheck SoftHard="Soft" def:ItemOID="IT.VS.VSTESTCD" Comparator="EQ"><CheckValue>HEIGHT</CheckValue></RangeCheck></def:WhereClauseDef><def:WhereClauseDef OID="WC.VS.2fad3005"><RangeCheck SoftHard="Soft" def:ItemOID="IT.VS.VSTESTCD" Comparator="EQ"><CheckValue>PULSE</CheckValue></RangeCheck><RangeCheck SoftHard="Soft" def:ItemOID="IT.VS.VSPOS" Comparator="IN"><CheckValue>PRONE</CheckValue><CheckValue>SEMI-RECUMBENT</CheckValue><CheckValue>SITTING</CheckValue><CheckValue>STANDING</CheckValue><CheckValue>SUPINE</CheckValue></RangeCheck><RangeCheck SoftHard="Soft" def:ItemOID="IT.VS.VSLOC" Comparator="IN"><CheckValue>BRACHIAL ARTERY</CheckValue><CheckValue>CAROTID ARTERY</CheckValue><CheckValue>CEREBRAL ARTERY</CheckValue><CheckValue>DORSALIS PEDIS ARTERY</CheckValue><CheckValue>FEMORAL ARTERY</CheckValue><CheckValue>RADIAL ARTERY</CheckValue></RangeCheck><RangeCheck SoftHard="Soft" def:ItemOID="IT.VS.VSLAT" Comparator="IN"><CheckValue>LEFT</CheckValue><CheckValue>RIGHT</CheckValue></RangeCheck></def:WhereClauseDef><def:WhereClauseDef OID="WC.VS.f296848d"><RangeCheck SoftHard="Soft" def:ItemOID="IT.VS.VSTESTCD" Comparator="EQ"><CheckValue>RESP</CheckValue></RangeCheck></def:WhereClauseDef><def:WhereClauseDef OID="WC.VS.ca4251ba"><RangeCheck SoftHard="Soft" def:ItemOID="IT.VS.VSTESTCD" Comparator="EQ"><CheckValue>BMI</CheckValue></RangeCheck></def:WhereClauseDef><def:WhereClauseDef OID="WC.VS.301c7ee3"><RangeCheck SoftHard="Soft" def:ItemOID="IT.VS.VSTESTCD" Comparator="EQ"><CheckValue>SYSBP</CheckValue></RangeCheck><RangeCheck SoftHard="Soft" def:ItemOID="IT.VS.VSPOS" Comparator="IN"><CheckValue>PRONE</CheckValue><CheckValue>SEMI-RECUMBENT</CheckValue><CheckValue>SITTING</CheckValue><CheckValue>STANDING</CheckValue><CheckValue>SUPINE</CheckValue></RangeCheck><RangeCheck SoftHard="Soft" def:ItemOID="IT.VS.VSLOC" Comparator="IN"><CheckValue>BRACHIAL ARTERY</CheckValue><CheckValue>CAROTID ARTERY</CheckValue><CheckValue>DORSALIS PEDIS ARTERY</CheckValue><CheckValue>FEMORAL ARTERY</CheckValue><CheckValue>FINGER</CheckValue><CheckValue>RADIAL ARTERY</CheckValue></RangeCheck><RangeCheck SoftHard="Soft" def:ItemOID="IT.VS.VSLAT" Comparator="IN"><CheckValue>LEFT</CheckValue><CheckValue>RIGHT</CheckValue></RangeCheck></def:WhereClauseDef><def:WhereClauseDef OID="WC.VS.714dfc07"><RangeCheck SoftHard="Soft" def:ItemOID="IT.VS.VSTESTCD" Comparator="EQ"><CheckValue>DIABP</CheckValue></RangeCheck><RangeCheck SoftHard="Soft" def:ItemOID="IT.VS.VSPOS" Comparator="IN"><CheckValue>PRONE</CheckValue><CheckValue>SEMI-RECUMBENT</CheckValue><CheckValue>SITTING</CheckValue><CheckValue>STANDING</CheckValue><CheckValue>SUPINE</CheckValue></RangeCheck><RangeCheck SoftHard="Soft" def:ItemOID="IT.VS.VSLOC" Comparator="IN"><CheckValue>BRACHIAL ARTERY</CheckValue><CheckValue>CAROTID ARTERY</CheckValue><CheckValue>DORSALIS PEDIS ARTERY</CheckValue><CheckValue>FEMORAL ARTERY</CheckValue><CheckValue>FINGER</CheckValue><CheckValue>RADIAL ARTERY</CheckValue></RangeCheck><RangeCheck SoftHard="Soft" def:ItemOID="IT.VS.VSLAT" Comparator="IN"><CheckValue>LEFT</CheckValue><CheckValue>RIGHT</CheckValue></RangeCheck></def:WhereClauseDef><def:WhereClauseDef OID="WC.VS.5a9c1ab0"><RangeCheck SoftHard="Soft" def:ItemOID="IT.VS.VSTESTCD" Comparator="EQ"><CheckValue>HR</CheckValue></RangeCheck><RangeCheck SoftHard="Soft" def:ItemOID="IT.VS.VSPOS" Comparator="IN"><CheckValue>PRONE</CheckValue><CheckValue>SEMI-RECUMBENT</CheckValue><CheckValue>SITTING</CheckValue><CheckValue>STANDING</CheckValue><CheckValue>SUPINE</CheckValue></RangeCheck><RangeCheck SoftHard="Soft" def:ItemOID="IT.VS.VSLOC" Comparator="IN"><CheckValue>BRACHIAL ARTERY</CheckValue><CheckValue>CAROTID ARTERY</CheckValue><CheckValue>CEREBRAL ARTERY</CheckValue><CheckValue>DORSALIS PEDIS ARTERY</CheckValue><CheckValue>FEMORAL ARTERY</CheckValue><CheckValue>RADIAL ARTERY</CheckValue></RangeCheck><RangeCheck SoftHard="Soft" def:ItemOID="IT.VS.VSLAT" Comparator="IN"><CheckValue>LEFT</CheckValue><CheckValue>RIGHT</CheckValue></RangeCheck></def:WhereClauseDef><def:WhereClauseDef OID="WC.EG.f60b99cb"><RangeCheck SoftHard="Soft" def:ItemOID="IT.EG.EGTESTCD" Comparator="EQ"><CheckValue>INTP</CheckValue></RangeCheck><RangeCheck SoftHard="Soft" def:ItemOID="IT.EG.EGEVAL" Comparator="IN"><CheckValue>ADJUDICATION COMMITTEE</CheckValue><CheckValue>INDEPENDENT ASSESSOR</CheckValue><CheckValue>INVESTIGATOR</CheckValue><CheckValue>VENDOR</CheckValue></RangeCheck></def:WhereClauseDef><def:WhereClauseDef OID="WC.EG.d30401ba"><RangeCheck SoftHard="Soft" def:ItemOID="IT.EG.EGTESTCD" Comparator="EQ"><CheckValue>AVCOND</CheckValue></RangeCheck><RangeCheck SoftHard="Soft" def:ItemOID="IT.EG.EGEVAL" Comparator="IN"><CheckValue>ADJUDICATION COMMITTEE</CheckValue><CheckValue>INDEPENDENT ASSESSOR</CheckValue><CheckValue>INVESTIGATOR</CheckValue><CheckValue>VENDOR</CheckValue></RangeCheck></def:WhereClauseDef><def:WhereClauseDef OID="WC.EG.0764363d"><RangeCheck SoftHard="Soft" def:ItemOID="IT.EG.EGTESTCD" Comparator="EQ"><CheckValue>AXISVOLT</CheckValue></RangeCheck><RangeCheck SoftHard="Soft" def:ItemOID="IT.EG.EGEVAL" Comparator="IN"><CheckValue>ADJUDICATION COMMITTEE</CheckValue><CheckValue>INDEPENDENT ASSESSOR</CheckValue><CheckValue>INVESTIGATOR</CheckValue><CheckValue>VENDOR</CheckValue></RangeCheck></def:WhereClauseDef><def:WhereClauseDef OID="WC.EG.c7ca2c0d"><RangeCheck SoftHard="Soft" def:ItemOID="IT.EG.EGTESTCD" Comparator="EQ"><CheckValue>CHYPTENL</CheckValue></RangeCheck><RangeCheck SoftHard="Soft" def:ItemOID="IT.EG.EGEVAL" Comparator="IN"><CheckValue>ADJUDICATION COMMITTEE</CheckValue><CheckValue>INDEPENDENT ASSESSOR</CheckValue><CheckValue>INVESTIGATOR</CheckValue><CheckValue>VENDOR</CheckValue></RangeCheck></def:WhereClauseDef><def:WhereClauseDef OID="WC.EG.0110957e"><RangeCheck SoftHard="Soft" def:ItemOID="IT.EG.EGTESTCD" Comparator="EQ"><CheckValue>TECHQUAL</CheckValue></RangeCheck><RangeCheck SoftHard="Soft" def:ItemOID="IT.EG.EGEVAL" Comparator="IN"><CheckValue>ADJUDICATION COMMITTEE</CheckValue><CheckValue>INDEPENDENT ASSESSOR</CheckValue><CheckValue>INVESTIGATOR</CheckValue><CheckValue>VENDOR</CheckValue></RangeCheck></def:WhereClauseDef><def:WhereClauseDef OID="WC.EG.7a2cbb17"><RangeCheck SoftHard="Soft" def:ItemOID="IT.EG.EGTESTCD" Comparator="EQ"><CheckValue>IVTIACD</CheckValue></RangeCheck><RangeCheck SoftHard="Soft" def:ItemOID="IT.EG.EGEVAL" Comparator="IN"><CheckValue>ADJUDICATION COMMITTEE</CheckValue><CheckValue>INDEPENDENT ASSESSOR</CheckValue><CheckValue>INVESTIGATOR</CheckValue><CheckValue>VENDOR</CheckValue></RangeCheck></def:WhereClauseDef><def:WhereClauseDef OID="WC.EG.c82f004b"><RangeCheck SoftHard="Soft" def:ItemOID="IT.EG.EGTESTCD" Comparator="EQ"><CheckValue>PACEMAKR</CheckValue></RangeCheck><RangeCheck SoftHard="Soft" def:ItemOID="IT.EG.EGEVAL" Comparator="IN"><CheckValue>ADJUDICATION COMMITTEE</CheckValue><CheckValue>INDEPENDENT ASSESSOR</CheckValue><CheckValue>INVESTIGATOR</CheckValue><CheckValue>VENDOR</CheckValue></RangeCheck></def:WhereClauseDef><def:WhereClauseDef OID="WC.EG.aaf51dd5"><RangeCheck SoftHard="Soft" def:ItemOID="IT.EG.EGTESTCD" Comparator="EQ"><CheckValue>RHYNOS</CheckValue></RangeCheck><RangeCheck SoftHard="Soft" def:ItemOID="IT.EG.EGEVAL" Comparator="IN"><CheckValue>ADJUDICATION COMMITTEE</CheckValue><CheckValue>INDEPENDENT ASSESSOR</CheckValue><CheckValue>INVESTIGATOR</CheckValue><CheckValue>VENDOR</CheckValue></RangeCheck></def:WhereClauseDef><def:WhereClauseDef OID="WC.EG.0a478649"><RangeCheck SoftHard="Soft" def:ItemOID="IT.EG.EGTESTCD" Comparator="EQ"><CheckValue>SNRARRY</CheckValue></RangeCheck><RangeCheck SoftHard="Soft" def:ItemOID="IT.EG.EGEVAL" Comparator="IN"><CheckValue>ADJUDICATION COMMITTEE</CheckValue><CheckValue>INDEPENDENT ASSESSOR</CheckValue><CheckValue>INVESTIGATOR</CheckValue><CheckValue>VENDOR</CheckValue></RangeCheck></def:WhereClauseDef><def:WhereClauseDef OID="WC.EG.44c12ce4"><RangeCheck SoftHard="Soft" def:ItemOID="IT.EG.EGTESTCD" Comparator="EQ"><CheckValue>SPRARRY</CheckValue></RangeCheck><RangeCheck SoftHard="Soft" def:ItemOID="IT.EG.EGEVAL" Comparator="IN"><CheckValue>ADJUDICATION COMMITTEE</CheckValue><CheckValue>INDEPENDENT ASSESSOR</CheckValue><CheckValue>INVESTIGATOR</CheckValue><CheckValue>VENDOR</CheckValue></RangeCheck></def:WhereClauseDef><def:WhereClauseDef OID="WC.EG.7c9fb72d"><RangeCheck SoftHard="Soft" def:ItemOID="IT.EG.EGTESTCD" Comparator="EQ"><CheckValue>SPRTARRY</CheckValue></RangeCheck><RangeCheck SoftHard="Soft" def:ItemOID="IT.EG.EGEVAL" Comparator="IN"><CheckValue>ADJUDICATION COMMITTEE</CheckValue><CheckValue>INDEPENDENT ASSESSOR</CheckValue><CheckValue>INVESTIGATOR</CheckValue><CheckValue>VENDOR</CheckValue></RangeCheck></def:WhereClauseDef><def:WhereClauseDef OID="WC.EG.3a146a53"><RangeCheck SoftHard="Soft" def:ItemOID="IT.EG.EGTESTCD" Comparator="EQ"><CheckValue>VTARRY</CheckValue></RangeCheck><RangeCheck SoftHard="Soft" def:ItemOID="IT.EG.EGEVAL" Comparator="IN"><CheckValue>ADJUDICATION COMMITTEE</CheckValue><CheckValue>INDEPENDENT ASSESSOR</CheckValue><CheckValue>INVESTIGATOR</CheckValue><CheckValue>VENDOR</CheckValue></RangeCheck></def:WhereClauseDef><def:WhereClauseDef OID="WC.EG.5571a969"><RangeCheck SoftHard="Soft" def:ItemOID="IT.EG.EGTESTCD" Comparator="EQ"><CheckValue>VTTARRY</CheckValue></RangeCheck><RangeCheck SoftHard="Soft" def:ItemOID="IT.EG.EGEVAL" Comparator="IN"><CheckValue>ADJUDICATION COMMITTEE</CheckValue><CheckValue>INDEPENDENT ASSESSOR</CheckValue><CheckValue>INVESTIGATOR</CheckValue><CheckValue>VENDOR</CheckValue></RangeCheck></def:WhereClauseDef><def:WhereClauseDef OID="WC.EG.13a9fd00"><RangeCheck SoftHard="Soft" def:ItemOID="IT.EG.EGTESTCD" Comparator="EQ"><CheckValue>PRAG</CheckValue></RangeCheck><RangeCheck SoftHard="Soft" def:ItemOID="IT.EG.EGEVAL" Comparator="IN"><CheckValue>ADJUDICATION COMMITTEE</CheckValue><CheckValue>INDEPENDENT ASSESSOR</CheckValue><CheckValue>INVESTIGATOR</CheckValue><CheckValue>VENDOR</CheckValue></RangeCheck></def:WhereClauseDef><def:WhereClauseDef OID="WC.EG.72304c3a"><RangeCheck SoftHard="Soft" def:ItemOID="IT.EG.EGTESTCD" Comparator="EQ"><CheckValue>QRSAG</CheckValue></RangeCheck><RangeCheck SoftHard="Soft" def:ItemOID="IT.EG.EGEVAL" Comparator="IN"><CheckValue>ADJUDICATION COMMITTEE</CheckValue><CheckValue>INDEPENDENT ASSESSOR</CheckValue><CheckValue>INVESTIGATOR</CheckValue><CheckValue>VENDOR</CheckValue></RangeCheck></def:WhereClauseDef><def:WhereClauseDef OID="WC.EG.6f155b1d"><RangeCheck SoftHard="Soft" def:ItemOID="IT.EG.EGTESTCD" Comparator="EQ"><CheckValue>QTAG</CheckValue></RangeCheck><RangeCheck SoftHard="Soft" def:ItemOID="IT.EG.EGEVAL" Comparator="IN"><CheckValue>ADJUDICATION COMMITTEE</CheckValue><CheckValue>INDEPENDENT ASSESSOR</CheckValue><CheckValue>INVESTIGATOR</CheckValue><CheckValue>VENDOR</CheckValue></RangeCheck></def:WhereClauseDef><def:WhereClauseDef OID="WC.EG.dff815c6"><RangeCheck SoftHard="Soft" def:ItemOID="IT.EG.EGTESTCD" Comparator="EQ"><CheckValue>QTCBAG</CheckValue></RangeCheck><RangeCheck SoftHard="Soft" def:ItemOID="IT.EG.EGEVAL" Comparator="IN"><CheckValue>ADJUDICATION COMMITTEE</CheckValue><CheckValue>INDEPENDENT ASSESSOR</CheckValue><CheckValue>INVESTIGATOR</CheckValue><CheckValue>VENDOR</CheckValue></RangeCheck></def:WhereClauseDef><def:WhereClauseDef OID="WC.EG.e967e1e7"><RangeCheck SoftHard="Soft" def:ItemOID="IT.EG.EGTESTCD" Comparator="EQ"><CheckValue>QTCFAG</CheckValue></RangeCheck><RangeCheck SoftHard="Soft" def:ItemOID="IT.EG.EGEVAL" Comparator="IN"><CheckValue>ADJUDICATION COMMITTEE</CheckValue><CheckValue>INDEPENDENT ASSESSOR</CheckValue><CheckValue>INVESTIGATOR</CheckValue><CheckValue>VENDOR</CheckValue></RangeCheck></def:WhereClauseDef><def:WhereClauseDef OID="WC.EG.64f26102"><RangeCheck SoftHard="Soft" def:ItemOID="IT.EG.EGTESTCD" Comparator="EQ"><CheckValue>RRAG</CheckValue></RangeCheck><RangeCheck SoftHard="Soft" def:ItemOID="IT.EG.EGEVAL" Comparator="IN"><CheckValue>ADJUDICATION COMMITTEE</CheckValue><CheckValue>INDEPENDENT ASSESSOR</CheckValue><CheckValue>INVESTIGATOR</CheckValue><CheckValue>VENDOR</CheckValue></RangeCheck></def:WhereClauseDef><def:WhereClauseDef OID="WC.EG.2ecbdce2"><RangeCheck SoftHard="Soft" def:ItemOID="IT.EG.EGTESTCD" Comparator="EQ"><CheckValue>EGHRMN</CheckValue></RangeCheck><RangeCheck SoftHard="Soft" def:ItemOID="IT.EG.EGEVAL" Comparator="IN"><CheckValue>ADJUDICATION COMMITTEE</CheckValue><CheckValue>INDEPENDENT ASSESSOR</CheckValue><CheckValue>INVESTIGATOR</CheckValue><CheckValue>VENDOR</CheckValue></RangeCheck></def:WhereClauseDef><def:WhereClauseDef OID="WC.EG.9ce29aa6"><RangeCheck SoftHard="Soft" def:ItemOID="IT.EG.EGTESTCD" Comparator="EQ"><CheckValue>QRS_AXIS</CheckValue></RangeCheck><RangeCheck SoftHard="Soft" def:ItemOID="IT.EG.EGEVAL" Comparator="IN"><CheckValue>ADJUDICATION COMMITTEE</CheckValue><CheckValue>INDEPENDENT ASSESSOR</CheckValue><CheckValue>INVESTIGATOR</CheckValue><CheckValue>VENDOR</CheckValue></RangeCheck></def:WhereClauseDef><def:WhereClauseDef OID="WC.EG.cec16291"><RangeCheck SoftHard="Soft" def:ItemOID="IT.EG.EGTESTCD" Comparator="EQ"><CheckValue>PRAG</CheckValue></RangeCheck><RangeCheck SoftHard="Soft" def:ItemOID="IT.EG.EGEVAL" Comparator="IN"><CheckValue>ADJUDICATION COMMITTEE</CheckValue><CheckValue>INDEPENDENT ASSESSOR</CheckValue><CheckValue>INVESTIGATOR</CheckValue><CheckValue>VENDOR</CheckValue></RangeCheck></def:WhereClauseDef><def:WhereClauseDef OID="WC.EG.5a1ab0f5"><RangeCheck SoftHard="Soft" def:ItemOID="IT.EG.EGTESTCD" Comparator="EQ"><CheckValue>QRSAG</CheckValue></RangeCheck><RangeCheck SoftHard="Soft" def:ItemOID="IT.EG.EGEVAL" Comparator="IN"><CheckValue>ADJUDICATION COMMITTEE</CheckValue><CheckValue>INDEPENDENT ASSESSOR</CheckValue><CheckValue>INVESTIGATOR</CheckValue><CheckValue>VENDOR</CheckValue></RangeCheck></def:WhereClauseDef><def:WhereClauseDef OID="WC.EG.ddb86367"><RangeCheck SoftHard="Soft" def:ItemOID="IT.EG.EGTESTCD" Comparator="EQ"><CheckValue>QTAG</CheckValue></RangeCheck><RangeCheck SoftHard="Soft" def:ItemOID="IT.EG.EGEVAL" Comparator="IN"><CheckValue>ADJUDICATION COMMITTEE</CheckValue><CheckValue>INDEPENDENT ASSESSOR</CheckValue><CheckValue>INVESTIGATOR</CheckValue><CheckValue>VENDOR</CheckValue></RangeCheck></def:WhereClauseDef><def:WhereClauseDef OID="WC.EG.e847517c"><RangeCheck SoftHard="Soft" def:ItemOID="IT.EG.EGTESTCD" Comparator="EQ"><CheckValue>QTCBAG</CheckValue></RangeCheck><RangeCheck SoftHard="Soft" def:ItemOID="IT.EG.EGEVAL" Comparator="IN"><CheckValue>ADJUDICATION COMMITTEE</CheckValue><CheckValue>INDEPENDENT ASSESSOR</CheckValue><CheckValue>INVESTIGATOR</CheckValue><CheckValue>VENDOR</CheckValue></RangeCheck></def:WhereClauseDef><def:WhereClauseDef OID="WC.EG.7f463007"><RangeCheck SoftHard="Soft" def:ItemOID="IT.EG.EGTESTCD" Comparator="EQ"><CheckValue>QTCFAG</CheckValue></RangeCheck><RangeCheck SoftHard="Soft" def:ItemOID="IT.EG.EGEVAL" Comparator="IN"><CheckValue>ADJUDICATION COMMITTEE</CheckValue><CheckValue>INDEPENDENT ASSESSOR</CheckValue><CheckValue>INVESTIGATOR</CheckValue><CheckValue>VENDOR</CheckValue></RangeCheck></def:WhereClauseDef><def:WhereClauseDef OID="WC.EG.3d1ba9c3"><RangeCheck SoftHard="Soft" def:ItemOID="IT.EG.EGTESTCD" Comparator="EQ"><CheckValue>RRAG</CheckValue></RangeCheck><RangeCheck SoftHard="Soft" def:ItemOID="IT.EG.EGEVAL" Comparator="IN"><CheckValue>ADJUDICATION COMMITTEE</CheckValue><CheckValue>INDEPENDENT ASSESSOR</CheckValue><CheckValue>INVESTIGATOR</CheckValue><CheckValue>VENDOR</CheckValue></RangeCheck></def:WhereClauseDef><def:WhereClauseDef OID="WC.EG.a40eb46d"><RangeCheck SoftHard="Soft" def:ItemOID="IT.EG.EGTESTCD" Comparator="EQ"><CheckValue>EGHRMN</CheckValue></RangeCheck><RangeCheck SoftHard="Soft" def:ItemOID="IT.EG.EGEVAL" Comparator="IN"><CheckValue>ADJUDICATION COMMITTEE</CheckValue><CheckValue>INDEPENDENT ASSESSOR</CheckValue><CheckValue>INVESTIGATOR</CheckValue><CheckValue>VENDOR</CheckValue></RangeCheck></def:WhereClauseDef><def:WhereClauseDef OID="WC.EG.02ebb46f"><RangeCheck SoftHard="Soft" def:ItemOID="IT.EG.EGTESTCD" Comparator="EQ"><CheckValue>QRS_AXIS</CheckValue></RangeCheck><RangeCheck SoftHard="Soft" def:ItemOID="IT.EG.EGEVAL" Comparator="IN"><CheckValue>ADJUDICATION COMMITTEE</CheckValue><CheckValue>INDEPENDENT ASSESSOR</CheckValue><CheckValue>INVESTIGATOR</CheckValue><CheckValue>VENDOR</CheckValue></RangeCheck></def:WhereClauseDef><def:WhereClauseDef OID="WC.LB.c192b07f"><RangeCheck SoftHard="Soft" def:ItemOID="IT.LB.LBTESTCD" Comparator="EQ"><CheckValue>HGB</CheckValue></RangeCheck><RangeCheck SoftHard="Soft" def:ItemOID="IT.LB.LBSPEC" Comparator="EQ"><CheckValue>BLOOD</CheckValue></RangeCheck><RangeCheck SoftHard="Soft" def:ItemOID="IT.LB.LBMETHOD" Comparator="EQ"><CheckValue>DIPSTICK MEASUREMENT METHOD</CheckValue></RangeCheck></def:WhereClauseDef><def:WhereClauseDef OID="WC.LB.82b97100"><RangeCheck SoftHard="Soft" def:ItemOID="IT.LB.LBTESTCD" Comparator="EQ"><CheckValue>HCT</CheckValue></RangeCheck><RangeCheck SoftHard="Soft" def:ItemOID="IT.LB.LBSPEC" Comparator="EQ"><CheckValue>BLOOD</CheckValue></RangeCheck></def:WhereClauseDef><def:WhereClauseDef OID="WC.LB.87582e25"><RangeCheck SoftHard="Soft" def:ItemOID="IT.LB.LBTESTCD" Comparator="EQ"><CheckValue>RBC</CheckValue></RangeCheck><RangeCheck SoftHard="Soft" def:ItemOID="IT.LB.LBSPEC" Comparator="EQ"><CheckValue>BLOOD</CheckValue></RangeCheck></def:WhereClauseDef><def:WhereClauseDef OID="WC.LB.95f4de22"><RangeCheck SoftHard="Soft" def:ItemOID="IT.LB.LBTESTCD" Comparator="EQ"><CheckValue>MCH</CheckValue></RangeCheck><RangeCheck SoftHard="Soft" def:ItemOID="IT.LB.LBSPEC" Comparator="EQ"><CheckValue>ERYTHROCYTES</CheckValue></RangeCheck></def:WhereClauseDef><def:WhereClauseDef OID="WC.LB.92bd1f17"><RangeCheck SoftHard="Soft" def:ItemOID="IT.LB.LBTESTCD" Comparator="EQ"><CheckValue>MCHC</CheckValue></RangeCheck><RangeCheck SoftHard="Soft" def:ItemOID="IT.LB.LBSPEC" Comparator="EQ"><CheckValue>ERYTHROCYTES</CheckValue></RangeCheck></def:WhereClauseDef><def:WhereClauseDef OID="WC.LB.24c0e2bc"><RangeCheck SoftHard="Soft" def:ItemOID="IT.LB.LBTESTCD" Comparator="EQ"><CheckValue>MCV</CheckValue></RangeCheck><RangeCheck SoftHard="Soft" def:ItemOID="IT.LB.LBSPEC" Comparator="EQ"><CheckValue>ERYTHROCYTES</CheckValue></RangeCheck></def:WhereClauseDef><def:WhereClauseDef OID="WC.LB.351df44b"><RangeCheck SoftHard="Soft" def:ItemOID="IT.LB.LBTESTCD" Comparator="EQ"><CheckValue>WBC</CheckValue></RangeCheck><RangeCheck SoftHard="Soft" def:ItemOID="IT.LB.LBSPEC" Comparator="EQ"><CheckValue>BLOOD</CheckValue></RangeCheck></def:WhereClauseDef><def:WhereClauseDef OID="WC.LB.5f2a0bab"><RangeCheck SoftHard="Soft" def:ItemOID="IT.LB.LBTESTCD" Comparator="EQ"><CheckValue>NEUTSG</CheckValue></RangeCheck><RangeCheck SoftHard="Soft" def:ItemOID="IT.LB.LBSPEC" Comparator="EQ"><CheckValue>BLOOD</CheckValue></RangeCheck></def:WhereClauseDef><def:WhereClauseDef OID="WC.LB.eea0ae49"><RangeCheck SoftHard="Soft" def:ItemOID="IT.LB.LBTESTCD" Comparator="EQ"><CheckValue>NEUTB</CheckValue></RangeCheck><RangeCheck SoftHard="Soft" def:ItemOID="IT.LB.LBSPEC" Comparator="EQ"><CheckValue>BLOOD</CheckValue></RangeCheck></def:WhereClauseDef><def:WhereClauseDef OID="WC.LB.550c7a01"><RangeCheck SoftHard="Soft" def:ItemOID="IT.LB.LBTESTCD" Comparator="EQ"><CheckValue>NEUT</CheckValue></RangeCheck><RangeCheck SoftHard="Soft" def:ItemOID="IT.LB.LBSPEC" Comparator="EQ"><CheckValue>BLOOD</CheckValue></RangeCheck></def:WhereClauseDef><def:WhereClauseDef OID="WC.LB.de4c119b"><RangeCheck SoftHard="Soft" def:ItemOID="IT.LB.LBTESTCD" Comparator="EQ"><CheckValue>MONO</CheckValue></RangeCheck><RangeCheck SoftHard="Soft" def:ItemOID="IT.LB.LBSPEC" Comparator="EQ"><CheckValue>BLOOD</CheckValue></RangeCheck></def:WhereClauseDef><def:WhereClauseDef OID="WC.LB.a5684311"><RangeCheck SoftHard="Soft" def:ItemOID="IT.LB.LBTESTCD" Comparator="EQ"><CheckValue>EOS</CheckValue></RangeCheck><RangeCheck SoftHard="Soft" def:ItemOID="IT.LB.LBSPEC" Comparator="EQ"><CheckValue>BLOOD</CheckValue></RangeCheck></def:WhereClauseDef><def:WhereClauseDef OID="WC.LB.7b86c15b"><RangeCheck SoftHard="Soft" def:ItemOID="IT.LB.LBTESTCD" Comparator="EQ"><CheckValue>BASO</CheckValue></RangeCheck><RangeCheck SoftHard="Soft" def:ItemOID="IT.LB.LBSPEC" Comparator="EQ"><CheckValue>BLOOD</CheckValue></RangeCheck></def:WhereClauseDef><def:WhereClauseDef OID="WC.LB.3a9d73e1"><RangeCheck SoftHard="Soft" def:ItemOID="IT.LB.LBTESTCD" Comparator="EQ"><CheckValue>PLAT</CheckValue></RangeCheck><RangeCheck SoftHard="Soft" def:ItemOID="IT.LB.LBSPEC" Comparator="EQ"><CheckValue>BLOOD</CheckValue></RangeCheck></def:WhereClauseDef><def:WhereClauseDef OID="WC.LB.ddc3319f"><RangeCheck SoftHard="Soft" def:ItemOID="IT.LB.LBTESTCD" Comparator="EQ"><CheckValue>MICROCY</CheckValue></RangeCheck><RangeCheck SoftHard="Soft" def:ItemOID="IT.LB.LBSPEC" Comparator="EQ"><CheckValue>URINE SEDIMENT</CheckValue></RangeCheck></def:WhereClauseDef><def:WhereClauseDef OID="WC.LB.116f85e4"><RangeCheck SoftHard="Soft" def:ItemOID="IT.LB.LBTESTCD" Comparator="EQ"><CheckValue>MACROCY</CheckValue></RangeCheck><RangeCheck SoftHard="Soft" def:ItemOID="IT.LB.LBSPEC" Comparator="EQ"><CheckValue>URINE SEDIMENT</CheckValue></RangeCheck></def:WhereClauseDef><def:WhereClauseDef OID="WC.LB.84ceb0ad"><RangeCheck SoftHard="Soft" def:ItemOID="IT.LB.LBTESTCD" Comparator="EQ"><CheckValue>ANISO</CheckValue></RangeCheck><RangeCheck SoftHard="Soft" def:ItemOID="IT.LB.LBSPEC" Comparator="EQ"><CheckValue>BLOOD</CheckValue></RangeCheck></def:WhereClauseDef><def:WhereClauseDef OID="WC.LB.b622c728"><RangeCheck SoftHard="Soft" def:ItemOID="IT.LB.LBTESTCD" Comparator="EQ"><CheckValue>POIKILO</CheckValue></RangeCheck><RangeCheck SoftHard="Soft" def:ItemOID="IT.LB.LBSPEC" Comparator="EQ"><CheckValue>BLOOD</CheckValue></RangeCheck></def:WhereClauseDef><def:WhereClauseDef OID="WC.LB.87b1b367"><RangeCheck SoftHard="Soft" def:ItemOID="IT.LB.LBTESTCD" Comparator="EQ"><CheckValue>POLYCHR</CheckValue></RangeCheck><RangeCheck SoftHard="Soft" def:ItemOID="IT.LB.LBSPEC" Comparator="EQ"><CheckValue>BLOOD</CheckValue></RangeCheck></def:WhereClauseDef><def:WhereClauseDef OID="WC.LB.5412b298"><RangeCheck SoftHard="Soft" def:ItemOID="IT.LB.LBTESTCD" Comparator="EQ"><CheckValue>ALT</CheckValue></RangeCheck><RangeCheck SoftHard="Soft" def:ItemOID="IT.LB.LBSPEC" Comparator="EQ"><CheckValue>SERUM OR PLASMA</CheckValue></RangeCheck></def:WhereClauseDef><def:WhereClauseDef OID="WC.LB.e42a3c09"><RangeCheck SoftHard="Soft" def:ItemOID="IT.LB.LBTESTCD" Comparator="EQ"><CheckValue>ALB</CheckValue></RangeCheck><RangeCheck SoftHard="Soft" def:ItemOID="IT.LB.LBSPEC" Comparator="EQ"><CheckValue>URINE</CheckValue></RangeCheck></def:WhereClauseDef><def:WhereClauseDef OID="WC.LB.cdac7fcc"><RangeCheck SoftHard="Soft" def:ItemOID="IT.LB.LBTESTCD" Comparator="EQ"><CheckValue>ALP</CheckValue></RangeCheck><RangeCheck SoftHard="Soft" def:ItemOID="IT.LB.LBSPEC" Comparator="EQ"><CheckValue>SERUM OR PLASMA</CheckValue></RangeCheck></def:WhereClauseDef><def:WhereClauseDef OID="WC.LB.b9d7ddba"><RangeCheck SoftHard="Soft" def:ItemOID="IT.LB.LBTESTCD" Comparator="EQ"><CheckValue>AST</CheckValue></RangeCheck><RangeCheck SoftHard="Soft" def:ItemOID="IT.LB.LBSPEC" Comparator="EQ"><CheckValue>SERUM OR PLASMA</CheckValue></RangeCheck></def:WhereClauseDef><def:WhereClauseDef OID="WC.LB.969c1a6d"><RangeCheck SoftHard="Soft" def:ItemOID="IT.LB.LBTESTCD" Comparator="EQ"><CheckValue>CREAT</CheckValue></RangeCheck><RangeCheck SoftHard="Soft" def:ItemOID="IT.LB.LBSPEC" Comparator="EQ"><CheckValue>URINE</CheckValue></RangeCheck></def:WhereClauseDef><def:WhereClauseDef OID="WC.LB.7ce691fd"><RangeCheck SoftHard="Soft" def:ItemOID="IT.LB.LBTESTCD" Comparator="EQ"><CheckValue>K</CheckValue></RangeCheck><RangeCheck SoftHard="Soft" def:ItemOID="IT.LB.LBSPEC" Comparator="EQ"><CheckValue>URINE</CheckValue></RangeCheck></def:WhereClauseDef><def:WhereClauseDef OID="WC.LB.88601b52"><RangeCheck SoftHard="Soft" def:ItemOID="IT.LB.LBTESTCD" Comparator="EQ"><CheckValue>SODIUM</CheckValue></RangeCheck><RangeCheck SoftHard="Soft" def:ItemOID="IT.LB.LBSPEC" Comparator="EQ"><CheckValue>URINE</CheckValue></RangeCheck></def:WhereClauseDef><def:WhereClauseDef OID="WC.LB.42392cd1"><RangeCheck SoftHard="Soft" def:ItemOID="IT.LB.LBTESTCD" Comparator="EQ"><CheckValue>UREAN</CheckValue></RangeCheck><RangeCheck SoftHard="Soft" def:ItemOID="IT.LB.LBSPEC" Comparator="EQ"><CheckValue>SERUM OR PLASMA</CheckValue></RangeCheck></def:WhereClauseDef><def:WhereClauseDef OID="WC.LB.9279ec22"><RangeCheck SoftHard="Soft" def:ItemOID="IT.LB.LBTESTCD" Comparator="EQ"><CheckValue>BICARB</CheckValue></RangeCheck><RangeCheck SoftHard="Soft" def:ItemOID="IT.LB.LBSPEC" Comparator="EQ"><CheckValue>BLOOD</CheckValue></RangeCheck></def:WhereClauseDef><def:WhereClauseDef OID="WC.LB.8b779a3b"><RangeCheck SoftHard="Soft" def:ItemOID="IT.LB.LBTESTCD" Comparator="EQ"><CheckValue>CL</CheckValue></RangeCheck><RangeCheck SoftHard="Soft" def:ItemOID="IT.LB.LBSPEC" Comparator="EQ"><CheckValue>SERUM OR PLASMA</CheckValue></RangeCheck></def:WhereClauseDef><def:WhereClauseDef OID="WC.LB.cfe14422"><RangeCheck SoftHard="Soft" def:ItemOID="IT.LB.LBTESTCD" Comparator="EQ"><CheckValue>BILI</CheckValue></RangeCheck><RangeCheck SoftHard="Soft" def:ItemOID="IT.LB.LBSPEC" Comparator="EQ"><CheckValue>URINE</CheckValue></RangeCheck></def:WhereClauseDef><def:WhereClauseDef OID="WC.LB.8285c765"><RangeCheck SoftHard="Soft" def:ItemOID="IT.LB.LBTESTCD" Comparator="EQ"><CheckValue>GGT</CheckValue></RangeCheck><RangeCheck SoftHard="Soft" def:ItemOID="IT.LB.LBSPEC" Comparator="EQ"><CheckValue>SERUM OR PLASMA</CheckValue></RangeCheck></def:WhereClauseDef><def:WhereClauseDef OID="WC.LB.37c7b4ba"><RangeCheck SoftHard="Soft" def:ItemOID="IT.LB.LBTESTCD" Comparator="EQ"><CheckValue>URATE</CheckValue></RangeCheck><RangeCheck SoftHard="Soft" def:ItemOID="IT.LB.LBSPEC" Comparator="EQ"><CheckValue>SERUM OR PLASMA</CheckValue></RangeCheck></def:WhereClauseDef><def:WhereClauseDef OID="WC.LB.e4e81dc5"><RangeCheck SoftHard="Soft" def:ItemOID="IT.LB.LBTESTCD" Comparator="EQ"><CheckValue>PHOS</CheckValue></RangeCheck><RangeCheck SoftHard="Soft" def:ItemOID="IT.LB.LBSPEC" Comparator="EQ"><CheckValue>SERUM OR PLASMA</CheckValue></RangeCheck></def:WhereClauseDef><def:WhereClauseDef OID="WC.LB.470def9b"><RangeCheck SoftHard="Soft" def:ItemOID="IT.LB.LBTESTCD" Comparator="EQ"><CheckValue>CA</CheckValue></RangeCheck><RangeCheck SoftHard="Soft" def:ItemOID="IT.LB.LBSPEC" Comparator="EQ"><CheckValue>SERUM OR PLASMA</CheckValue></RangeCheck></def:WhereClauseDef><def:WhereClauseDef OID="WC.LB.c891c160"><RangeCheck SoftHard="Soft" def:ItemOID="IT.LB.LBTESTCD" Comparator="EQ"><CheckValue>GLUC</CheckValue></RangeCheck><RangeCheck SoftHard="Soft" def:ItemOID="IT.LB.LBSPEC" Comparator="EQ"><CheckValue>URINE</CheckValue></RangeCheck></def:WhereClauseDef><def:WhereClauseDef OID="WC.LB.abcfd20c"><RangeCheck SoftHard="Soft" def:ItemOID="IT.LB.LBTESTCD" Comparator="EQ"><CheckValue>PROT</CheckValue></RangeCheck><RangeCheck SoftHard="Soft" def:ItemOID="IT.LB.LBSPEC" Comparator="EQ"><CheckValue>URINE</CheckValue></RangeCheck></def:WhereClauseDef><def:WhereClauseDef OID="WC.LB.5a1bca67"><RangeCheck SoftHard="Soft" def:ItemOID="IT.LB.LBTESTCD" Comparator="EQ"><CheckValue>CHOL</CheckValue></RangeCheck><RangeCheck SoftHard="Soft" def:ItemOID="IT.LB.LBSPEC" Comparator="EQ"><CheckValue>SERUM OR PLASMA</CheckValue></RangeCheck></def:WhereClauseDef><def:WhereClauseDef OID="WC.LB.4226ee02"><RangeCheck SoftHard="Soft" def:ItemOID="IT.LB.LBTESTCD" Comparator="EQ"><CheckValue>T3UP</CheckValue></RangeCheck><RangeCheck SoftHard="Soft" def:ItemOID="IT.LB.LBSPEC" Comparator="EQ"><CheckValue>SERUM OR PLASMA</CheckValue></RangeCheck></def:WhereClauseDef><def:WhereClauseDef OID="WC.LB.df33e99e"><RangeCheck SoftHard="Soft" def:ItemOID="IT.LB.LBTESTCD" Comparator="EQ"><CheckValue>T3</CheckValue></RangeCheck><RangeCheck SoftHard="Soft" def:ItemOID="IT.LB.LBSPEC" Comparator="EQ"><CheckValue>SERUM OR PLASMA</CheckValue></RangeCheck></def:WhereClauseDef><def:WhereClauseDef OID="WC.LB.30f3d8b3"><RangeCheck SoftHard="Soft" def:ItemOID="IT.LB.LBTESTCD" Comparator="EQ"><CheckValue>T4FR</CheckValue></RangeCheck><RangeCheck SoftHard="Soft" def:ItemOID="IT.LB.LBSPEC" Comparator="EQ"><CheckValue>SERUM OR PLASMA</CheckValue></RangeCheck></def:WhereClauseDef><def:WhereClauseDef OID="WC.LB.f59f4529"><RangeCheck SoftHard="Soft" def:ItemOID="IT.LB.LBTESTCD" Comparator="EQ"><CheckValue>T4FRIDX</CheckValue></RangeCheck><RangeCheck SoftHard="Soft" def:ItemOID="IT.LB.LBSPEC" Comparator="EQ"><CheckValue>SERUM OR PLASMA</CheckValue></RangeCheck></def:WhereClauseDef><def:WhereClauseDef OID="WC.LB.c54221c6"><RangeCheck SoftHard="Soft" def:ItemOID="IT.LB.LBTESTCD" Comparator="EQ"><CheckValue>TSH</CheckValue></RangeCheck><RangeCheck SoftHard="Soft" def:ItemOID="IT.LB.LBSPEC" Comparator="EQ"><CheckValue>SERUM OR PLASMA</CheckValue></RangeCheck></def:WhereClauseDef><def:WhereClauseDef OID="WC.LB.cb02cad8"><RangeCheck SoftHard="Soft" def:ItemOID="IT.LB.LBTESTCD" Comparator="EQ"><CheckValue>VITB9</CheckValue></RangeCheck><RangeCheck SoftHard="Soft" def:ItemOID="IT.LB.LBSPEC" Comparator="EQ"><CheckValue>SERUM OR PLASMA</CheckValue></RangeCheck></def:WhereClauseDef><def:WhereClauseDef OID="WC.LB.d0f49556"><RangeCheck SoftHard="Soft" def:ItemOID="IT.LB.LBTESTCD" Comparator="EQ"><CheckValue>VITB12</CheckValue></RangeCheck><RangeCheck SoftHard="Soft" def:ItemOID="IT.LB.LBSPEC" Comparator="EQ"><CheckValue>SERUM OR PLASMA</CheckValue></RangeCheck></def:WhereClauseDef><def:WhereClauseDef OID="WC.LB.4987b41e"><RangeCheck SoftHard="Soft" def:ItemOID="IT.LB.LBTESTCD" Comparator="EQ"><CheckValue>COLOR</CheckValue></RangeCheck><RangeCheck SoftHard="Soft" def:ItemOID="IT.LB.LBSPEC" Comparator="EQ"><CheckValue>URINE</CheckValue></RangeCheck></def:WhereClauseDef><def:WhereClauseDef OID="WC.LB.cbf789d8"><RangeCheck SoftHard="Soft" def:ItemOID="IT.LB.LBTESTCD" Comparator="EQ"><CheckValue>SPGRAV</CheckValue></RangeCheck><RangeCheck SoftHard="Soft" def:ItemOID="IT.LB.LBSPEC" Comparator="EQ"><CheckValue>URINE</CheckValue></RangeCheck></def:WhereClauseDef><def:WhereClauseDef OID="WC.LB.3239d7a3"><RangeCheck SoftHard="Soft" def:ItemOID="IT.LB.LBTESTCD" Comparator="EQ"><CheckValue>KETONES</CheckValue></RangeCheck><RangeCheck SoftHard="Soft" def:ItemOID="IT.LB.LBSPEC" Comparator="EQ"><CheckValue>URINE</CheckValue></RangeCheck></def:WhereClauseDef><def:WhereClauseDef OID="WC.LB.59366afe"><RangeCheck SoftHard="Soft" def:ItemOID="IT.LB.LBTESTCD" Comparator="EQ"><CheckValue>UROBIL</CheckValue></RangeCheck><RangeCheck SoftHard="Soft" def:ItemOID="IT.LB.LBSPEC" Comparator="EQ"><CheckValue>URINE</CheckValue></RangeCheck></def:WhereClauseDef><def:WhereClauseDef OID="WC.LB.3adc4566"><RangeCheck SoftHard="Soft" def:ItemOID="IT.LB.LBTESTCD" Comparator="EQ"><CheckValue>OCCBLD</CheckValue></RangeCheck><RangeCheck SoftHard="Soft" def:ItemOID="IT.LB.LBSPEC" Comparator="EQ"><CheckValue>STOOL</CheckValue></RangeCheck></def:WhereClauseDef><def:WhereClauseDef OID="WC.LB.59074de1"><RangeCheck SoftHard="Soft" def:ItemOID="IT.LB.LBTESTCD" Comparator="EQ"><CheckValue>NITRITE</CheckValue></RangeCheck><RangeCheck SoftHard="Soft" def:ItemOID="IT.LB.LBSPEC" Comparator="EQ"><CheckValue>URINE</CheckValue></RangeCheck></def:WhereClauseDef><def:WhereClauseDef OID="WC.LB.c1765eee"><RangeCheck SoftHard="Soft" def:ItemOID="IT.LB.LBTESTCD" Comparator="EQ"><CheckValue>HBA1C</CheckValue></RangeCheck><RangeCheck SoftHard="Soft" def:ItemOID="IT.LB.LBSPEC" Comparator="EQ"><CheckValue>BLOOD</CheckValue></RangeCheck></def:WhereClauseDef><def:WhereClauseDef OID="WC.LB.dd459ec6"><RangeCheck SoftHard="Soft" def:ItemOID="IT.LB.LBTESTCD" Comparator="EQ"><CheckValue>HBA1CHGB</CheckValue></RangeCheck><RangeCheck SoftHard="Soft" def:ItemOID="IT.LB.LBSPEC" Comparator="EQ"><CheckValue>BLOOD</CheckValue></RangeCheck></def:WhereClauseDef><def:WhereClauseDef OID="WC.LB.e9a1c33d"><RangeCheck SoftHard="Soft" def:ItemOID="IT.LB.LBTESTCD" Comparator="EQ"><CheckValue>HGB</CheckValue></RangeCheck><RangeCheck SoftHard="Soft" def:ItemOID="IT.LB.LBSPEC" Comparator="EQ"><CheckValue>BLOOD</CheckValue></RangeCheck><RangeCheck SoftHard="Soft" def:ItemOID="IT.LB.LBMETHOD" Comparator="EQ"><CheckValue>DIPSTICK MEASUREMENT METHOD</CheckValue></RangeCheck></def:WhereClauseDef><def:WhereClauseDef OID="WC.LB.7f0975c7"><RangeCheck SoftHard="Soft" def:ItemOID="IT.LB.LBTESTCD" Comparator="EQ"><CheckValue>HCT</CheckValue></RangeCheck><RangeCheck SoftHard="Soft" def:ItemOID="IT.LB.LBSPEC" Comparator="EQ"><CheckValue>BLOOD</CheckValue></RangeCheck></def:WhereClauseDef><def:WhereClauseDef OID="WC.LB.f7f1de35"><RangeCheck SoftHard="Soft" def:ItemOID="IT.LB.LBTESTCD" Comparator="EQ"><CheckValue>RBC</CheckValue></RangeCheck><RangeCheck SoftHard="Soft" def:ItemOID="IT.LB.LBSPEC" Comparator="EQ"><CheckValue>BLOOD</CheckValue></RangeCheck></def:WhereClauseDef><def:WhereClauseDef OID="WC.LB.c32acb17"><RangeCheck SoftHard="Soft" def:ItemOID="IT.LB.LBTESTCD" Comparator="EQ"><CheckValue>MCH</CheckValue></RangeCheck><RangeCheck SoftHard="Soft" def:ItemOID="IT.LB.LBSPEC" Comparator="EQ"><CheckValue>ERYTHROCYTES</CheckValue></RangeCheck></def:WhereClauseDef><def:WhereClauseDef OID="WC.LB.eb7f048a"><RangeCheck SoftHard="Soft" def:ItemOID="IT.LB.LBTESTCD" Comparator="EQ"><CheckValue>MCHC</CheckValue></RangeCheck><RangeCheck SoftHard="Soft" def:ItemOID="IT.LB.LBSPEC" Comparator="EQ"><CheckValue>ERYTHROCYTES</CheckValue></RangeCheck></def:WhereClauseDef><def:WhereClauseDef OID="WC.LB.e881d4b5"><RangeCheck SoftHard="Soft" def:ItemOID="IT.LB.LBTESTCD" Comparator="EQ"><CheckValue>MCV</CheckValue></RangeCheck><RangeCheck SoftHard="Soft" def:ItemOID="IT.LB.LBSPEC" Comparator="EQ"><CheckValue>ERYTHROCYTES</CheckValue></RangeCheck></def:WhereClauseDef><def:WhereClauseDef OID="WC.LB.41785be6"><RangeCheck SoftHard="Soft" def:ItemOID="IT.LB.LBTESTCD" Comparator="EQ"><CheckValue>WBC</CheckValue></RangeCheck><RangeCheck SoftHard="Soft" def:ItemOID="IT.LB.LBSPEC" Comparator="EQ"><CheckValue>BLOOD</CheckValue></RangeCheck></def:WhereClauseDef><def:WhereClauseDef OID="WC.LB.a68e5eaa"><RangeCheck SoftHard="Soft" def:ItemOID="IT.LB.LBTESTCD" Comparator="EQ"><CheckValue>NEUTSG</CheckValue></RangeCheck><RangeCheck SoftHard="Soft" def:ItemOID="IT.LB.LBSPEC" Comparator="EQ"><CheckValue>BLOOD</CheckValue></RangeCheck></def:WhereClauseDef><def:WhereClauseDef OID="WC.LB.aad6dbd6"><RangeCheck SoftHard="Soft" def:ItemOID="IT.LB.LBTESTCD" Comparator="EQ"><CheckValue>NEUTB</CheckValue></RangeCheck><RangeCheck SoftHard="Soft" def:ItemOID="IT.LB.LBSPEC" Comparator="EQ"><CheckValue>BLOOD</CheckValue></RangeCheck></def:WhereClauseDef><def:WhereClauseDef OID="WC.LB.d13d6578"><RangeCheck SoftHard="Soft" def:ItemOID="IT.LB.LBTESTCD" Comparator="EQ"><CheckValue>NEUT</CheckValue></RangeCheck><RangeCheck SoftHard="Soft" def:ItemOID="IT.LB.LBSPEC" Comparator="EQ"><CheckValue>BLOOD</CheckValue></RangeCheck></def:WhereClauseDef><def:WhereClauseDef OID="WC.LB.00e6d228"><RangeCheck SoftHard="Soft" def:ItemOID="IT.LB.LBTESTCD" Comparator="EQ"><CheckValue>MONO</CheckValue></RangeCheck><RangeCheck SoftHard="Soft" def:ItemOID="IT.LB.LBSPEC" Comparator="EQ"><CheckValue>BLOOD</CheckValue></RangeCheck></def:WhereClauseDef><def:WhereClauseDef OID="WC.LB.ef654de1"><RangeCheck SoftHard="Soft" def:ItemOID="IT.LB.LBTESTCD" Comparator="EQ"><CheckValue>EOS</CheckValue></RangeCheck><RangeCheck SoftHard="Soft" def:ItemOID="IT.LB.LBSPEC" Comparator="EQ"><CheckValue>BLOOD</CheckValue></RangeCheck></def:WhereClauseDef><def:WhereClauseDef OID="WC.LB.b6fa6e8d"><RangeCheck SoftHard="Soft" def:ItemOID="IT.LB.LBTESTCD" Comparator="EQ"><CheckValue>BASO</CheckValue></RangeCheck><RangeCheck SoftHard="Soft" def:ItemOID="IT.LB.LBSPEC" Comparator="EQ"><CheckValue>BLOOD</CheckValue></RangeCheck></def:WhereClauseDef><def:WhereClauseDef OID="WC.LB.90eedf3b"><RangeCheck SoftHard="Soft" def:ItemOID="IT.LB.LBTESTCD" Comparator="EQ"><CheckValue>PLAT</CheckValue></RangeCheck><RangeCheck SoftHard="Soft" def:ItemOID="IT.LB.LBSPEC" Comparator="EQ"><CheckValue>BLOOD</CheckValue></RangeCheck></def:WhereClauseDef><def:WhereClauseDef OID="WC.LB.8914eb45"><RangeCheck SoftHard="Soft" def:ItemOID="IT.LB.LBTESTCD" Comparator="EQ"><CheckValue>ALT</CheckValue></RangeCheck><RangeCheck SoftHard="Soft" def:ItemOID="IT.LB.LBSPEC" Comparator="EQ"><CheckValue>SERUM OR PLASMA</CheckValue></RangeCheck></def:WhereClauseDef><def:WhereClauseDef OID="WC.LB.6660e11c"><RangeCheck SoftHard="Soft" def:ItemOID="IT.LB.LBTESTCD" Comparator="EQ"><CheckValue>ALP</CheckValue></RangeCheck><RangeCheck SoftHard="Soft" def:ItemOID="IT.LB.LBSPEC" Comparator="EQ"><CheckValue>SERUM OR PLASMA</CheckValue></RangeCheck></def:WhereClauseDef><def:WhereClauseDef OID="WC.LB.37e389df"><RangeCheck SoftHard="Soft" def:ItemOID="IT.LB.LBTESTCD" Comparator="EQ"><CheckValue>AST</CheckValue></RangeCheck><RangeCheck SoftHard="Soft" def:ItemOID="IT.LB.LBSPEC" Comparator="EQ"><CheckValue>SERUM OR PLASMA</CheckValue></RangeCheck></def:WhereClauseDef><def:WhereClauseDef OID="WC.LB.549f5ae4"><RangeCheck SoftHard="Soft" def:ItemOID="IT.LB.LBTESTCD" Comparator="EQ"><CheckValue>CREAT</CheckValue></RangeCheck><RangeCheck SoftHard="Soft" def:ItemOID="IT.LB.LBSPEC" Comparator="EQ"><CheckValue>URINE</CheckValue></RangeCheck></def:WhereClauseDef><def:WhereClauseDef OID="WC.LB.ee634517"><RangeCheck SoftHard="Soft" def:ItemOID="IT.LB.LBTESTCD" Comparator="EQ"><CheckValue>K</CheckValue></RangeCheck><RangeCheck SoftHard="Soft" def:ItemOID="IT.LB.LBSPEC" Comparator="EQ"><CheckValue>URINE</CheckValue></RangeCheck></def:WhereClauseDef><def:WhereClauseDef OID="WC.LB.07a8daa1"><RangeCheck SoftHard="Soft" def:ItemOID="IT.LB.LBTESTCD" Comparator="EQ"><CheckValue>SODIUM</CheckValue></RangeCheck><RangeCheck SoftHard="Soft" def:ItemOID="IT.LB.LBSPEC" Comparator="EQ"><CheckValue>URINE</CheckValue></RangeCheck></def:WhereClauseDef><def:WhereClauseDef OID="WC.LB.91d1c3d5"><RangeCheck SoftHard="Soft" def:ItemOID="IT.LB.LBTESTCD" Comparator="EQ"><CheckValue>UREAN</CheckValue></RangeCheck><RangeCheck SoftHard="Soft" def:ItemOID="IT.LB.LBSPEC" Comparator="EQ"><CheckValue>SERUM OR PLASMA</CheckValue></RangeCheck></def:WhereClauseDef><def:WhereClauseDef OID="WC.LB.9df0845c"><RangeCheck SoftHard="Soft" def:ItemOID="IT.LB.LBTESTCD" Comparator="EQ"><CheckValue>BICARB</CheckValue></RangeCheck><RangeCheck SoftHard="Soft" def:ItemOID="IT.LB.LBSPEC" Comparator="EQ"><CheckValue>BLOOD</CheckValue></RangeCheck></def:WhereClauseDef><def:WhereClauseDef OID="WC.LB.cc8b6004"><RangeCheck SoftHard="Soft" def:ItemOID="IT.LB.LBTESTCD" Comparator="EQ"><CheckValue>CL</CheckValue></RangeCheck><RangeCheck SoftHard="Soft" def:ItemOID="IT.LB.LBSPEC" Comparator="EQ"><CheckValue>SERUM OR PLASMA</CheckValue></RangeCheck></def:WhereClauseDef><def:WhereClauseDef OID="WC.LB.3c564f36"><RangeCheck SoftHard="Soft" def:ItemOID="IT.LB.LBTESTCD" Comparator="EQ"><CheckValue>GGT</CheckValue></RangeCheck><RangeCheck SoftHard="Soft" def:ItemOID="IT.LB.LBSPEC" Comparator="EQ"><CheckValue>SERUM OR PLASMA</CheckValue></RangeCheck></def:WhereClauseDef><def:WhereClauseDef OID="WC.LB.13fbb1a5"><RangeCheck SoftHard="Soft" def:ItemOID="IT.LB.LBTESTCD" Comparator="EQ"><CheckValue>URATE</CheckValue></RangeCheck><RangeCheck SoftHard="Soft" def:ItemOID="IT.LB.LBSPEC" Comparator="EQ"><CheckValue>SERUM OR PLASMA</CheckValue></RangeCheck></def:WhereClauseDef><def:WhereClauseDef OID="WC.LB.3749493c"><RangeCheck SoftHard="Soft" def:ItemOID="IT.LB.LBTESTCD" Comparator="EQ"><CheckValue>PHOS</CheckValue></RangeCheck><RangeCheck SoftHard="Soft" def:ItemOID="IT.LB.LBSPEC" Comparator="EQ"><CheckValue>SERUM OR PLASMA</CheckValue></RangeCheck></def:WhereClauseDef><def:WhereClauseDef OID="WC.LB.38f9f39d"><RangeCheck SoftHard="Soft" def:ItemOID="IT.LB.LBTESTCD" Comparator="EQ"><CheckValue>CA</CheckValue></RangeCheck><RangeCheck SoftHard="Soft" def:ItemOID="IT.LB.LBSPEC" Comparator="EQ"><CheckValue>SERUM OR PLASMA</CheckValue></RangeCheck></def:WhereClauseDef><def:WhereClauseDef OID="WC.LB.516f3664"><RangeCheck SoftHard="Soft" def:ItemOID="IT.LB.LBTESTCD" Comparator="EQ"><CheckValue>CHOL</CheckValue></RangeCheck><RangeCheck SoftHard="Soft" def:ItemOID="IT.LB.LBSPEC" Comparator="EQ"><CheckValue>SERUM OR PLASMA</CheckValue></RangeCheck></def:WhereClauseDef><def:WhereClauseDef OID="WC.LB.dcbcbe57"><RangeCheck SoftHard="Soft" def:ItemOID="IT.LB.LBTESTCD" Comparator="EQ"><CheckValue>T3UP</CheckValue></RangeCheck><RangeCheck SoftHard="Soft" def:ItemOID="IT.LB.LBSPEC" Comparator="EQ"><CheckValue>SERUM OR PLASMA</CheckValue></RangeCheck></def:WhereClauseDef><def:WhereClauseDef OID="WC.LB.b7b215a1"><RangeCheck SoftHard="Soft" def:ItemOID="IT.LB.LBTESTCD" Comparator="EQ"><CheckValue>T3</CheckValue></RangeCheck><RangeCheck SoftHard="Soft" def:ItemOID="IT.LB.LBSPEC" Comparator="EQ"><CheckValue>SERUM OR PLASMA</CheckValue></RangeCheck></def:WhereClauseDef><def:WhereClauseDef OID="WC.LB.0f071538"><RangeCheck SoftHard="Soft" def:ItemOID="IT.LB.LBTESTCD" Comparator="EQ"><CheckValue>T4FR</CheckValue></RangeCheck><RangeCheck SoftHard="Soft" def:ItemOID="IT.LB.LBSPEC" Comparator="EQ"><CheckValue>SERUM OR PLASMA</CheckValue></RangeCheck></def:WhereClauseDef><def:WhereClauseDef OID="WC.LB.258e657c"><RangeCheck SoftHard="Soft" def:ItemOID="IT.LB.LBTESTCD" Comparator="EQ"><CheckValue>T4FRIDX</CheckValue></RangeCheck><RangeCheck SoftHard="Soft" def:ItemOID="IT.LB.LBSPEC" Comparator="EQ"><CheckValue>SERUM OR PLASMA</CheckValue></RangeCheck></def:WhereClauseDef><def:WhereClauseDef OID="WC.LB.d675561c"><RangeCheck SoftHard="Soft" def:ItemOID="IT.LB.LBTESTCD" Comparator="EQ"><CheckValue>TSH</CheckValue></RangeCheck><RangeCheck SoftHard="Soft" def:ItemOID="IT.LB.LBSPEC" Comparator="EQ"><CheckValue>SERUM OR PLASMA</CheckValue></RangeCheck></def:WhereClauseDef><def:WhereClauseDef OID="WC.LB.e81938d6"><RangeCheck SoftHard="Soft" def:ItemOID="IT.LB.LBTESTCD" Comparator="EQ"><CheckValue>VITB9</CheckValue></RangeCheck><RangeCheck SoftHard="Soft" def:ItemOID="IT.LB.LBSPEC" Comparator="EQ"><CheckValue>SERUM OR PLASMA</CheckValue></RangeCheck></def:WhereClauseDef><def:WhereClauseDef OID="WC.LB.54dda2d1"><RangeCheck SoftHard="Soft" def:ItemOID="IT.LB.LBTESTCD" Comparator="EQ"><CheckValue>VITB12</CheckValue></RangeCheck><RangeCheck SoftHard="Soft" def:ItemOID="IT.LB.LBSPEC" Comparator="EQ"><CheckValue>SERUM OR PLASMA</CheckValue></RangeCheck></def:WhereClauseDef><def:WhereClauseDef OID="WC.LB.e6a434ec"><RangeCheck SoftHard="Soft" def:ItemOID="IT.LB.LBTESTCD" Comparator="EQ"><CheckValue>UROBIL</CheckValue></RangeCheck><RangeCheck SoftHard="Soft" def:ItemOID="IT.LB.LBSPEC" Comparator="EQ"><CheckValue>URINE</CheckValue></RangeCheck></def:WhereClauseDef><def:WhereClauseDef OID="WC.LB.9e9118c8"><RangeCheck SoftHard="Soft" def:ItemOID="IT.LB.LBTESTCD" Comparator="EQ"><CheckValue>HBA1C</CheckValue></RangeCheck><RangeCheck SoftHard="Soft" def:ItemOID="IT.LB.LBSPEC" Comparator="EQ"><CheckValue>BLOOD</CheckValue></RangeCheck></def:WhereClauseDef><def:WhereClauseDef OID="WC.LB.8644d9ca"><RangeCheck SoftHard="Soft" def:ItemOID="IT.LB.LBTESTCD" Comparator="EQ"><CheckValue>HBA1CHGB</CheckValue></RangeCheck><RangeCheck SoftHard="Soft" def:ItemOID="IT.LB.LBSPEC" Comparator="EQ"><CheckValue>BLOOD</CheckValue></RangeCheck></def:WhereClauseDef><def:WhereClauseDef OID="WC.MB.49773274"><RangeCheck SoftHard="Soft" def:ItemOID="IT.MB.MBTESTCD" Comparator="EQ"><CheckValue>TPLAB</CheckValue></RangeCheck><RangeCheck SoftHard="Soft" def:ItemOID="IT.MB.MBTSTDTL" Comparator="EQ"><CheckValue>DETECTION</CheckValue></RangeCheck><RangeCheck SoftHard="Soft" def:ItemOID="IT.MB.MBSPEC" Comparator="EQ"><CheckValue>SERUM</CheckValue></RangeCheck><RangeCheck SoftHard="Soft" def:ItemOID="IT.MB.MBMETHOD" Comparator="IN"><CheckValue>FLUORESCENT IMMUNOASSAY</CheckValue><CheckValue>HEMAGGLUTINATION ASSAY</CheckValue><CheckValue>CHEMILUMINESCENT MICROPARTICLE IMMUNOASSAY</CheckValue><CheckValue>POLYMERASE CHAIN REACTION</CheckValue><CheckValue>IMMUNOBLOT</CheckValue><CheckValue>RAPID IMMUNOASSAY</CheckValue></RangeCheck></def:WhereClauseDef><def:WhereClauseDef OID="WC.MB.e698c5a2"><RangeCheck SoftHard="Soft" def:ItemOID="IT.MB.MBTESTCD" Comparator="EQ"><CheckValue>TPADNA</CheckValue></RangeCheck><RangeCheck SoftHard="Soft" def:ItemOID="IT.MB.MBTSTDTL" Comparator="EQ"><CheckValue>DETECTION</CheckValue></RangeCheck><RangeCheck SoftHard="Soft" def:ItemOID="IT.MB.MBSPEC" Comparator="IN"><CheckValue>BLOOD</CheckValue><CheckValue>CEREBROSPINAL FLUID</CheckValue><CheckValue>FLUID</CheckValue><CheckValue>SWABBED MATERIAL</CheckValue><CheckValue>URINE</CheckValue></RangeCheck><RangeCheck SoftHard="Soft" def:ItemOID="IT.MB.MBMETHOD" Comparator="EQ"><CheckValue>LINE PROBE ASSAY</CheckValue></RangeCheck></def:WhereClauseDef><def:WhereClauseDef OID="WC.IE.1d2bb25f"><RangeCheck SoftHard="Soft" def:ItemOID="IT.IE.IETESTCD" Comparator="EQ"><CheckValue>IN01</CheckValue></RangeCheck></def:WhereClauseDef><def:WhereClauseDef OID="WC.IE.fa688bf3"><RangeCheck SoftHard="Soft" def:ItemOID="IT.IE.IETESTCD" Comparator="EQ"><CheckValue>IN02</CheckValue></RangeCheck></def:WhereClauseDef><def:WhereClauseDef OID="WC.IE.f276b607"><RangeCheck SoftHard="Soft" def:ItemOID="IT.IE.IETESTCD" Comparator="EQ"><CheckValue>IN03</CheckValue></RangeCheck></def:WhereClauseDef><def:WhereClauseDef OID="WC.IE.cd528448"><RangeCheck SoftHard="Soft" def:ItemOID="IT.IE.IETESTCD" Comparator="EQ"><CheckValue>IN04</CheckValue></RangeCheck></def:WhereClauseDef><def:WhereClauseDef OID="WC.IE.c1db3fd3"><RangeCheck SoftHard="Soft" def:ItemOID="IT.IE.IETESTCD" Comparator="EQ"><CheckValue>IN05</CheckValue></RangeCheck></def:WhereClauseDef><def:WhereClauseDef OID="WC.IE.c2ec614b"><RangeCheck SoftHard="Soft" def:ItemOID="IT.IE.IETESTCD" Comparator="EQ"><CheckValue>IN06</CheckValue></RangeCheck></def:WhereClauseDef><def:WhereClauseDef OID="WC.IE.2ef341aa"><RangeCheck SoftHard="Soft" def:ItemOID="IT.IE.IETESTCD" Comparator="EQ"><CheckValue>IN07</CheckValue></RangeCheck></def:WhereClauseDef><def:WhereClauseDef OID="WC.IE.5d85184b"><RangeCheck SoftHard="Soft" def:ItemOID="IT.IE.IETESTCD" Comparator="EQ"><CheckValue>IN08</CheckValue></RangeCheck></def:WhereClauseDef><def:WhereClauseDef OID="WC.IE.8579104c"><RangeCheck SoftHard="Soft" def:ItemOID="IT.IE.IETESTCD" Comparator="EQ"><CheckValue>EX01</CheckValue></RangeCheck></def:WhereClauseDef><def:WhereClauseDef OID="WC.IE.74eacc45"><RangeCheck SoftHard="Soft" def:ItemOID="IT.IE.IETESTCD" Comparator="EQ"><CheckValue>EX02</CheckValue></RangeCheck></def:WhereClauseDef><def:WhereClauseDef OID="WC.IE.ce0e8d09"><RangeCheck SoftHard="Soft" def:ItemOID="IT.IE.IETESTCD" Comparator="EQ"><CheckValue>EX03</CheckValue></RangeCheck></def:WhereClauseDef><def:WhereClauseDef OID="WC.IE.945bafbd"><RangeCheck SoftHard="Soft" def:ItemOID="IT.IE.IETESTCD" Comparator="EQ"><CheckValue>EX04</CheckValue></RangeCheck></def:WhereClauseDef><def:WhereClauseDef OID="WC.IE.afbec960"><RangeCheck SoftHard="Soft" def:ItemOID="IT.IE.IETESTCD" Comparator="EQ"><CheckValue>EX05</CheckValue></RangeCheck></def:WhereClauseDef><def:WhereClauseDef OID="WC.IE.cac0d3f4"><RangeCheck SoftHard="Soft" def:ItemOID="IT.IE.IETESTCD" Comparator="EQ"><CheckValue>EX06</CheckValue></RangeCheck></def:WhereClauseDef><def:WhereClauseDef OID="WC.IE.cabd9be0"><RangeCheck SoftHard="Soft" def:ItemOID="IT.IE.IETESTCD" Comparator="EQ"><CheckValue>EX07</CheckValue></RangeCheck></def:WhereClauseDef><def:WhereClauseDef OID="WC.IE.fbae7983"><RangeCheck SoftHard="Soft" def:ItemOID="IT.IE.IETESTCD" Comparator="EQ"><CheckValue>EX08</CheckValue></RangeCheck></def:WhereClauseDef><def:WhereClauseDef OID="WC.IE.0952c014"><RangeCheck SoftHard="Soft" def:ItemOID="IT.IE.IETESTCD" Comparator="EQ"><CheckValue>EX09</CheckValue></RangeCheck></def:WhereClauseDef><def:WhereClauseDef OID="WC.IE.5b8b02b2"><RangeCheck SoftHard="Soft" def:ItemOID="IT.IE.IETESTCD" Comparator="EQ"><CheckValue>EX10</CheckValue></RangeCheck></def:WhereClauseDef><def:WhereClauseDef OID="WC.IE.70a941e7"><RangeCheck SoftHard="Soft" def:ItemOID="IT.IE.IETESTCD" Comparator="EQ"><CheckValue>EX11</CheckValue></RangeCheck></def:WhereClauseDef><def:WhereClauseDef OID="WC.IE.611f5d7b"><RangeCheck SoftHard="Soft" def:ItemOID="IT.IE.IETESTCD" Comparator="EQ"><CheckValue>EX12</CheckValue></RangeCheck></def:WhereClauseDef><def:WhereClauseDef OID="WC.IE.8abff918"><RangeCheck SoftHard="Soft" def:ItemOID="IT.IE.IETESTCD" Comparator="EQ"><CheckValue>EX13</CheckValue></RangeCheck></def:WhereClauseDef><def:WhereClauseDef OID="WC.IE.b089a2a0"><RangeCheck SoftHard="Soft" def:ItemOID="IT.IE.IETESTCD" Comparator="EQ"><CheckValue>EX14</CheckValue></RangeCheck></def:WhereClauseDef><def:WhereClauseDef OID="WC.IE.39cb2456"><RangeCheck SoftHard="Soft" def:ItemOID="IT.IE.IETESTCD" Comparator="EQ"><CheckValue>EX15</CheckValue></RangeCheck></def:WhereClauseDef><def:WhereClauseDef OID="WC.IE.2cdb5c18"><RangeCheck SoftHard="Soft" def:ItemOID="IT.IE.IETESTCD" Comparator="EQ"><CheckValue>EX16</CheckValue></RangeCheck></def:WhereClauseDef><def:WhereClauseDef OID="WC.IE.b415f3a9"><RangeCheck SoftHard="Soft" def:ItemOID="IT.IE.IETESTCD" Comparator="EQ"><CheckValue>EX17</CheckValue></RangeCheck></def:WhereClauseDef><def:WhereClauseDef OID="WC.IE.5c29f970"><RangeCheck SoftHard="Soft" def:ItemOID="IT.IE.IETESTCD" Comparator="EQ"><CheckValue>EX18</CheckValue></RangeCheck></def:WhereClauseDef><def:WhereClauseDef OID="WC.IE.9fe9a358"><RangeCheck SoftHard="Soft" def:ItemOID="IT.IE.IETESTCD" Comparator="EQ"><CheckValue>EX19</CheckValue></RangeCheck></def:WhereClauseDef><def:WhereClauseDef OID="WC.IE.e36b210b"><RangeCheck SoftHard="Soft" def:ItemOID="IT.IE.IETESTCD" Comparator="EQ"><CheckValue>EX20</CheckValue></RangeCheck></def:WhereClauseDef><def:WhereClauseDef OID="WC.IE.743b4fb5"><RangeCheck SoftHard="Soft" def:ItemOID="IT.IE.IETESTCD" Comparator="EQ"><CheckValue>EX21</CheckValue></RangeCheck></def:WhereClauseDef><def:WhereClauseDef OID="WC.IE.76a82754"><RangeCheck SoftHard="Soft" def:ItemOID="IT.IE.IETESTCD" Comparator="EQ"><CheckValue>EX22</CheckValue></RangeCheck></def:WhereClauseDef><def:WhereClauseDef OID="WC.IE.fbeb5a1e"><RangeCheck SoftHard="Soft" def:ItemOID="IT.IE.IETESTCD" Comparator="EQ"><CheckValue>EX23</CheckValue></RangeCheck></def:WhereClauseDef><def:WhereClauseDef OID="WC.SE.ef0bfe06"><RangeCheck SoftHard="Soft" def:ItemOID="IT.SE.ETCD" Comparator="EQ"><CheckValue>EL1</CheckValue></RangeCheck></def:WhereClauseDef><def:WhereClauseDef OID="WC.SE.fd73ada9"><RangeCheck SoftHard="Soft" def:ItemOID="IT.SE.ETCD" Comparator="EQ"><CheckValue>EL2</CheckValue></RangeCheck></def:WhereClauseDef><def:WhereClauseDef OID="WC.SE.7f36565b"><RangeCheck SoftHard="Soft" def:ItemOID="IT.SE.ETCD" Comparator="EQ"><CheckValue>EL7</CheckValue></RangeCheck></def:WhereClauseDef><def:WhereClauseDef OID="WC.SE.e02c83c0"><RangeCheck SoftHard="Soft" def:ItemOID="IT.SE.ETCD" Comparator="EQ"><CheckValue>EL3</CheckValue></RangeCheck></def:WhereClauseDef><def:WhereClauseDef OID="WC.SE.0f456498"><RangeCheck SoftHard="Soft" def:ItemOID="IT.SE.ETCD" Comparator="EQ"><CheckValue>EL4</CheckValue></RangeCheck></def:WhereClauseDef><def:WhereClauseDef OID="WC.SE.64e8e407"><RangeCheck SoftHard="Soft" def:ItemOID="IT.SE.ETCD" Comparator="EQ"><CheckValue>EL5</CheckValue></RangeCheck></def:WhereClauseDef><def:WhereClauseDef OID="WC.SE.8d2f7b81"><RangeCheck SoftHard="Soft" def:ItemOID="IT.SE.ETCD" Comparator="EQ"><CheckValue>EL6</CheckValue></RangeCheck></def:WhereClauseDef><def:WhereClauseDef OID="WC.SE.4566c7e6"><RangeCheck SoftHard="Soft" def:ItemOID="IT.SE.ETCD" Comparator="EQ"><CheckValue>EL1</CheckValue></RangeCheck></def:WhereClauseDef><def:WhereClauseDef OID="WC.SE.a172aab3"><RangeCheck SoftHard="Soft" def:ItemOID="IT.SE.ETCD" Comparator="EQ"><CheckValue>EL2</CheckValue></RangeCheck></def:WhereClauseDef><def:WhereClauseDef OID="WC.SE.7fb0f4fe"><RangeCheck SoftHard="Soft" def:ItemOID="IT.SE.ETCD" Comparator="EQ"><CheckValue>EL7</CheckValue></RangeCheck></def:WhereClauseDef><def:WhereClauseDef OID="WC.SE.8edcd91c"><RangeCheck SoftHard="Soft" def:ItemOID="IT.SE.ETCD" Comparator="EQ"><CheckValue>EL3</CheckValue></RangeCheck></def:WhereClauseDef><def:WhereClauseDef OID="WC.SE.8a354977"><RangeCheck SoftHard="Soft" def:ItemOID="IT.SE.ETCD" Comparator="EQ"><CheckValue>EL4</CheckValue></RangeCheck></def:WhereClauseDef><def:WhereClauseDef OID="WC.SE.be405067"><RangeCheck SoftHard="Soft" def:ItemOID="IT.SE.ETCD" Comparator="EQ"><CheckValue>EL5</CheckValue></RangeCheck></def:WhereClauseDef><def:WhereClauseDef OID="WC.SE.ac9f11bb"><RangeCheck SoftHard="Soft" def:ItemOID="IT.SE.ETCD" Comparator="EQ"><CheckValue>EL6</CheckValue></RangeCheck></def:WhereClauseDef><ItemGroupDef OID="IG.DS" Name="DS" Domain="DS" def:Structure="One record per disposition status or protocol milestone per subject" IsReferenceData="No" Repeating="Yes" Purpose="Tabulation" def:StandardOID="ST.SDTMIG"><Description><TranslatedText xml:lang="en">Disposition</TranslatedText></Description><ItemRef ItemOID="IT.DS.STUDYID" Mandatory="Yes" Role="Identifier" /><ItemRef ItemOID="IT.DS.DOMAIN" Mandatory="Yes" Role="Identifier" /><ItemRef ItemOID="IT.DS.USUBJID" Mandatory="Yes" Role="Identifier" /><ItemRef ItemOID="IT.DS.DSSEQ" Mandatory="Yes" Role="Identifier" /><ItemRef ItemOID="IT.DS.DSTERM" Mandatory="Yes" Role="Topic" /><ItemRef ItemOID="IT.DS.DSDECOD" Mandatory="Yes" Role="Synonym Qualifier" /><ItemRef ItemOID="IT.DS.DSCAT" Mandatory="No" Role="Grouping Qualifier" /><ItemRef ItemOID="IT.DS.DSSCAT" Mandatory="No" Role="Grouping Qualifier" /><ItemRef ItemOID="IT.DS.DSSTDTC" Mandatory="No" Role="Timing" /><ItemRef ItemOID="IT.DS.DSSTDY" Mandatory="No" Role="Timing" /></ItemGroupDef><ItemGroupDef OID="IG.DM" Name="DM" Domain="DM" def:Structure="One record per subject" IsReferenceData="No" Repeating="No" Purpose="Tabulation" def:StandardOID="ST.SDTMIG"><Description><TranslatedText xml:lang="en">Demographics</TranslatedText></Description><ItemRef ItemOID="IT.DM.STUDYID" Mandatory="Yes" Role="Identifier" /><ItemRef ItemOID="IT.DM.DOMAIN" Mandatory="Yes" Role="Identifier" /><ItemRef ItemOID="IT.DM.USUBJID" Mandatory="Yes" Role="Identifier" /><ItemRef ItemOID="IT.DM.SUBJID" Mandatory="Yes" Role="Topic" /><ItemRef ItemOID="IT.DM.RFSTDTC" Mandatory="No" Role="Record Qualifier" /><ItemRef ItemOID="IT.DM.RFENDTC" Mandatory="No" Role="Record Qualifier" /><ItemRef ItemOID="IT.DM.RFXSTDTC" Mandatory="No" Role="Record Qualifier" /><ItemRef ItemOID="IT.DM.RFXENDTC" Mandatory="No" Role="Record Qualifier" /><ItemRef ItemOID="IT.DM.RFICDTC" Mandatory="No" Role="Record Qualifier" /><ItemRef ItemOID="IT.DM.RFPENDTC" Mandatory="No" Role="Record Qualifier" /><ItemRef ItemOID="IT.DM.DTHDTC" Mandatory="No" Role="Record Qualifier" /><ItemRef ItemOID="IT.DM.DTHFL" Mandatory="No" Role="Record Qualifier" /><ItemRef ItemOID="IT.DM.SITEID" Mandatory="Yes" Role="Record Qualifier" /><ItemRef ItemOID="IT.DM.AGE" Mandatory="No" Role="Record Qualifier" /><ItemRef ItemOID="IT.DM.AGEU" Mandatory="No" Role="Variable Qualifier" /><ItemRef ItemOID="IT.DM.SEX" Mandatory="Yes" Role="Record Qualifier" /><ItemRef ItemOID="IT.DM.RACE" Mandatory="No" Role="Record Qualifier" /><ItemRef ItemOID="IT.DM.ETHNIC" Mandatory="No" Role="Record Qualifier" /><ItemRef ItemOID="IT.DM.ARMCD" Mandatory="No" Role="Record Qualifier" /><ItemRef ItemOID="IT.DM.ARM" Mandatory="No" Role="Synonym Qualifier" /><ItemRef ItemOID="IT.DM.ACTARMCD" Mandatory="No" Role="Record Qualifier" /><ItemRef ItemOID="IT.DM.ACTARM" Mandatory="No" Role="Synonym Qualifier" /><ItemRef ItemOID="IT.DM.ARMNRS" Mandatory="No" Role="Record Qualifier" /><ItemRef ItemOID="IT.DM.ACTARMUD" Mandatory="No" Role="Record Qualifier" /><ItemRef ItemOID="IT.DM.COUNTRY" Mandatory="Yes" Role="Record Qualifier" /><ItemRef ItemOID="IT.DM.DMDTC" Mandatory="No" Role="Timing" /></ItemGroupDef><ItemGroupDef OID="IG.SC" Name="SC" Domain="SC" def:Structure="One record per characteristic per visit per subject." IsReferenceData="No" Repeating="Yes" Purpose="Tabulation" def:StandardOID="ST.SDTMIG"><Description><TranslatedText xml:lang="en">Subject Characteristics</TranslatedText></Description><ItemRef ItemOID="IT.SC.STUDYID" Mandatory="Yes" Role="Identifier" /><ItemRef ItemOID="IT.SC.DOMAIN" Mandatory="Yes" Role="Identifier" /><ItemRef ItemOID="IT.SC.USUBJID" Mandatory="Yes" Role="Identifier" /><ItemRef ItemOID="IT.SC.SCSEQ" Mandatory="Yes" Role="Identifier" /><ItemRef ItemOID="IT.SC.SCTESTCD" Mandatory="Yes" Role="Topic" /><ItemRef ItemOID="IT.SC.SCTEST" Mandatory="Yes" Role="Synonym Qualifier" /><ItemRef ItemOID="IT.SC.SCORRES" Mandatory="No" Role="Result Qualifier" /><ItemRef ItemOID="IT.SC.SCORRESU" Mandatory="No" Role="Variable Qualifier" /><ItemRef ItemOID="IT.SC.SCSTRESC" Mandatory="No" Role="Result Qualifier" /><ItemRef ItemOID="IT.SC.SCSTRESN" Mandatory="No" Role="Result Qualifier" /><ItemRef ItemOID="IT.SC.SCSTRESU" Mandatory="No" Role="Variable Qualifier" /><ItemRef ItemOID="IT.SC.SCDTC" Mandatory="No" Role="Timing" /></ItemGroupDef><ItemGroupDef OID="IG.MH" Name="MH" Domain="MH" def:Structure="One record per medical history event per subject" IsReferenceData="No" Repeating="Yes" Purpose="Tabulation" def:StandardOID="ST.SDTMIG"><Description><TranslatedText xml:lang="en">Medical History</TranslatedText></Description><ItemRef ItemOID="IT.MH.STUDYID" Mandatory="Yes" Role="Identifier" /><ItemRef ItemOID="IT.MH.DOMAIN" Mandatory="Yes" Role="Identifier" /><ItemRef ItemOID="IT.MH.USUBJID" Mandatory="Yes" Role="Identifier" /><ItemRef ItemOID="IT.MH.MHSEQ" Mandatory="Yes" Role="Identifier" /><ItemRef ItemOID="IT.MH.MHTERM" Mandatory="Yes" Role="Topic" /><ItemRef ItemOID="IT.MH.MHDECOD" Mandatory="No" Role="Synonym Qualifier" /><ItemRef ItemOID="IT.MH.MHPRESP" Mandatory="No" Role="Variable Qualifier" /><ItemRef ItemOID="IT.MH.MHOCCUR" Mandatory="No" Role="Record Qualifier" /><ItemRef ItemOID="IT.MH.MHENRF" Mandatory="No" Role="Timing" /><ItemRef ItemOID="IT.MH.MHENRTPT" Mandatory="No" Role="Timing" /><ItemRef ItemOID="IT.MH.MHENTPT" Mandatory="No" Role="Timing" /></ItemGroupDef><ItemGroupDef OID="IG.SU" Name="SU" Domain="SU" def:Structure="One record per substance type per reported occurrence per subject" IsReferenceData="No" Repeating="Yes" Purpose="Tabulation" def:StandardOID="ST.SDTMIG"><Description><TranslatedText xml:lang="en">Substance Use</TranslatedText></Description><ItemRef ItemOID="IT.SU.STUDYID" Mandatory="Yes" Role="Identifier" /><ItemRef ItemOID="IT.SU.DOMAIN" Mandatory="Yes" Role="Identifier" /><ItemRef ItemOID="IT.SU.USUBJID" Mandatory="Yes" Role="Identifier" /><ItemRef ItemOID="IT.SU.SUSEQ" Mandatory="Yes" Role="Identifier" /><ItemRef ItemOID="IT.SU.SUTRT" Mandatory="Yes" Role="Topic" /><ItemRef ItemOID="IT.SU.SUCAT" Mandatory="No" Role="Grouping Qualifier" /><ItemRef ItemOID="IT.SU.SUSCAT" Mandatory="No" Role="Grouping Qualifier" /><ItemRef ItemOID="IT.SU.SUPRESP" Mandatory="No" Role="Variable Qualifier" /><ItemRef ItemOID="IT.SU.SUOCCUR" Mandatory="No" Role="Record Qualifier" /><ItemRef ItemOID="IT.SU.SUDOSE" Mandatory="No" Role="Record Qualifier" /><ItemRef ItemOID="IT.SU.SUDOSTXT" Mandatory="No" Role="Record Qualifier" /><ItemRef ItemOID="IT.SU.SUDOSU" Mandatory="No" Role="Variable Qualifier" /><ItemRef ItemOID="IT.SU.SUDOSFRQ" Mandatory="No" Role="Variable Qualifier" /><ItemRef ItemOID="IT.SU.SUSTDTC" Mandatory="No" Role="Timing" /><ItemRef ItemOID="IT.SU.SUENDTC" Mandatory="No" Role="Timing" /><ItemRef ItemOID="IT.SU.SUDUR" Mandatory="No" Role="Timing" /><ItemRef ItemOID="IT.SU.SUSTRF" Mandatory="No" Role="Timing" /><ItemRef ItemOID="IT.SU.SUENRF" Mandatory="No" Role="Timing" /><ItemRef ItemOID="IT.SU.SUSTRTPT" Mandatory="No" Role="Timing" /><ItemRef ItemOID="IT.SU.SUSTTPT" Mandatory="No" Role="Timing" /><ItemRef ItemOID="IT.SU.SUENRTPT" Mandatory="No" Role="Timing" /><ItemRef ItemOID="IT.SU.SUENTPT" Mandatory="No" Role="Timing" /></ItemGroupDef><ItemGroupDef OID="IG.PR" Name="PR" Domain="PR" def:Structure="One record per recorded procedure per occurrence per subject" IsReferenceData="No" Repeating="Yes" Purpose="Tabulation" def:StandardOID="ST.SDTMIG"><Description><TranslatedText xml:lang="en">Procedures</TranslatedText></Description><ItemRef ItemOID="IT.PR.STUDYID" Mandatory="Yes" Role="Identifier" /><ItemRef ItemOID="IT.PR.DOMAIN" Mandatory="Yes" Role="Identifier" /><ItemRef ItemOID="IT.PR.USUBJID" Mandatory="Yes" Role="Identifier" /><ItemRef ItemOID="IT.PR.PRSEQ" Mandatory="Yes" Role="Identifier" /><ItemRef ItemOID="IT.PR.PRTRT" Mandatory="Yes" Role="Topic" /><ItemRef ItemOID="IT.PR.PRDECOD" Mandatory="No" Role="Synonym Qualifier" /><ItemRef ItemOID="IT.PR.PRCAT" Mandatory="No" Role="Grouping Qualifier" /><ItemRef ItemOID="IT.PR.PRSCAT" Mandatory="No" Role="Grouping Qualifier" /><ItemRef ItemOID="IT.PR.PRPRESP" Mandatory="No" Role="Variable Qualifier" /><ItemRef ItemOID="IT.PR.PROCCUR" Mandatory="No" Role="Record Qualifier" /><ItemRef ItemOID="IT.PR.PRLOC" Mandatory="No" Role="Record Qualifier" /><ItemRef ItemOID="IT.PR.PRSTDTC" Mandatory="No" Role="Timing" /><ItemRef ItemOID="IT.PR.PRENDTC" Mandatory="No" Role="Timing" /></ItemGroupDef><ItemGroupDef OID="IG.VS" Name="VS" Domain="VS" def:Structure="One record per vital sign measurement per time point per visit per subject" IsReferenceData="No" Repeating="Yes" Purpose="Tabulation" def:StandardOID="ST.SDTMIG"><Description><TranslatedText xml:lang="en">Vital Signs</TranslatedText></Description><ItemRef ItemOID="IT.VS.STUDYID" Mandatory="Yes" Role="Identifier" /><ItemRef ItemOID="IT.VS.DOMAIN" Mandatory="Yes" Role="Identifier" /><ItemRef ItemOID="IT.VS.USUBJID" Mandatory="Yes" Role="Identifier" /><ItemRef ItemOID="IT.VS.VSSEQ" Mandatory="Yes" Role="Identifier" /><ItemRef ItemOID="IT.VS.VSTESTCD" Mandatory="Yes" Role="Topic" /><ItemRef ItemOID="IT.VS.VSTEST" Mandatory="Yes" Role="Synonym Qualifier" /><ItemRef ItemOID="IT.VS.VSPOS" Mandatory="No" Role="Record Qualifier" /><ItemRef ItemOID="IT.VS.VSORRES" Mandatory="No" Role="Result Qualifier" /><ItemRef ItemOID="IT.VS.VSORRESU" Mandatory="No" Role="Variable Qualifier" /><ItemRef ItemOID="IT.VS.VSSTRESC" Mandatory="No" Role="Result Qualifier" /><ItemRef ItemOID="IT.VS.VSSTRESN" Mandatory="No" Role="Result Qualifier" /><ItemRef ItemOID="IT.VS.VSSTRESU" Mandatory="No" Role="Variable Qualifier" /><ItemRef ItemOID="IT.VS.VSLOC" Mandatory="No" Role="Record Qualifier" /><ItemRef ItemOID="IT.VS.VSLAT" Mandatory="No" Role="Result Qualifier" /><ItemRef ItemOID="IT.VS.VSLOBXFL" Mandatory="No" Role="Record Qualifier" /><ItemRef ItemOID="IT.VS.VISITNUM" Mandatory="No" Role="Timing" /><ItemRef ItemOID="IT.VS.VSDTC" Mandatory="No" Role="Timing" /></ItemGroupDef><ItemGroupDef OID="IG.EG" Name="EG" Domain="EG" def:Structure="One record per ECG observation per replicate per time point or one record per ECG observation per beat per visit per subject" IsReferenceData="No" Repeating="Yes" Purpose="Tabulation" def:StandardOID="ST.SDTMIG"><Description><TranslatedText xml:lang="en">ECG Test Results</TranslatedText></Description><ItemRef ItemOID="IT.EG.STUDYID" Mandatory="Yes" Role="Identifier" /><ItemRef ItemOID="IT.EG.DOMAIN" Mandatory="Yes" Role="Identifier" /><ItemRef ItemOID="IT.EG.USUBJID" Mandatory="Yes" Role="Identifier" /><ItemRef ItemOID="IT.EG.EGSEQ" Mandatory="Yes" Role="Identifier" /><ItemRef ItemOID="IT.EG.EGTESTCD" Mandatory="Yes" Role="Topic" /><ItemRef ItemOID="IT.EG.EGTEST" Mandatory="Yes" Role="Synonym Qualifier" /><ItemRef ItemOID="IT.EG.EGCAT" Mandatory="No" Role="Grouping Qualifier" /><ItemRef ItemOID="IT.EG.EGPOS" Mandatory="No" Role="Record Qualifier" /><ItemRef ItemOID="IT.EG.EGORRES" Mandatory="No" Role="Result Qualifier" /><ItemRef ItemOID="IT.EG.EGORRESU" Mandatory="No" Role="Variable Qualifier" /><ItemRef ItemOID="IT.EG.EGSTRESC" Mandatory="No" Role="Result Qualifier" /><ItemRef ItemOID="IT.EG.EGSTRESN" Mandatory="No" Role="Result Qualifier" /><ItemRef ItemOID="IT.EG.EGSTRESU" Mandatory="No" Role="Variable Qualifier" /><ItemRef ItemOID="IT.EG.EGMETHOD" Mandatory="No" Role="Record Qualifier" /><ItemRef ItemOID="IT.EG.EGLOBXFL" Mandatory="No" Role="Record Qualifier" /><ItemRef ItemOID="IT.EG.EGEVAL" Mandatory="No" Role="Record Qualifier" /><ItemRef ItemOID="IT.EG.EGCLSIG" Mandatory="No" Role="Record Qualifier" /><ItemRef ItemOID="IT.EG.VISITNUM" Mandatory="No" Role="Timing" /><ItemRef ItemOID="IT.EG.EGDTC" Mandatory="No" Role="Timing" /></ItemGroupDef><ItemGroupDef OID="IG.CM" Name="CM" Domain="CM" def:Structure="One record per recorded intervention occurrence or constant-dosing interval per subject" IsReferenceData="No" Repeating="Yes" Purpose="Tabulation" def:StandardOID="ST.SDTMIG"><Description><TranslatedText xml:lang="en">Concomitant/Prior Medications</TranslatedText></Description><ItemRef ItemOID="IT.CM.STUDYID" Mandatory="Yes" Role="Identifier" /><ItemRef ItemOID="IT.CM.DOMAIN" Mandatory="Yes" Role="Identifier" /><ItemRef ItemOID="IT.CM.USUBJID" Mandatory="Yes" Role="Identifier" /><ItemRef ItemOID="IT.CM.CMSEQ" Mandatory="Yes" Role="Identifier" /><ItemRef ItemOID="IT.CM.CMTRT" Mandatory="Yes" Role="Topic" /><ItemRef ItemOID="IT.CM.CMDECOD" Mandatory="No" Role="Synonym Qualifier" /><ItemRef ItemOID="IT.CM.CMCAT" Mandatory="No" Role="Grouping Qualifier" /><ItemRef ItemOID="IT.CM.CMSCAT" Mandatory="No" Role="Grouping Qualifier" /><ItemRef ItemOID="IT.CM.CMPRESP" Mandatory="No" Role="Variable Qualifier" /><ItemRef ItemOID="IT.CM.CMOCCUR" Mandatory="No" Role="Record Qualifier" /><ItemRef ItemOID="IT.CM.CMINDC" Mandatory="No" Role="Record Qualifier" /><ItemRef ItemOID="IT.CM.CMDOSE" Mandatory="No" Role="Record Qualifier" /><ItemRef ItemOID="IT.CM.CMDOSU" Mandatory="No" Role="Variable Qualifier" /><ItemRef ItemOID="IT.CM.CMDOSFRM" Mandatory="No" Role="Variable Qualifier" /><ItemRef ItemOID="IT.CM.CMROUTE" Mandatory="No" Role="Variable Qualifier" /><ItemRef ItemOID="IT.CM.CMSTDTC" Mandatory="No" Role="Timing" /><ItemRef ItemOID="IT.CM.CMENDTC" Mandatory="No" Role="Timing" /></ItemGroupDef><ItemGroupDef OID="IG.LB" Name="LB" Domain="LB" def:Structure="One record per lab test per time point per visit per subject" IsReferenceData="No" Repeating="Yes" Purpose="Tabulation" def:StandardOID="ST.SDTMIG"><Description><TranslatedText xml:lang="en">Laboratory Test Results</TranslatedText></Description><ItemRef ItemOID="IT.LB.STUDYID" Mandatory="Yes" Role="Identifier" /><ItemRef ItemOID="IT.LB.DOMAIN" Mandatory="Yes" Role="Identifier" /><ItemRef ItemOID="IT.LB.USUBJID" Mandatory="Yes" Role="Identifier" /><ItemRef ItemOID="IT.LB.LBSEQ" Mandatory="Yes" Role="Identifier" /><ItemRef ItemOID="IT.LB.LBTESTCD" Mandatory="Yes" Role="Topic" /><ItemRef ItemOID="IT.LB.LBTEST" Mandatory="Yes" Role="Synonym Qualifier" /><ItemRef ItemOID="IT.LB.LBCAT" Mandatory="No" Role="Grouping Qualifier" /><ItemRef ItemOID="IT.LB.LBORRES" Mandatory="No" Role="Result Qualifier" /><ItemRef ItemOID="IT.LB.LBORRESU" Mandatory="No" Role="Variable Qualifier" /><ItemRef ItemOID="IT.LB.LBORNRLO" Mandatory="No" Role="Variable Qualifier" /><ItemRef ItemOID="IT.LB.LBORNRHI" Mandatory="No" Role="Variable Qualifier" /><ItemRef ItemOID="IT.LB.LBSTRESC" Mandatory="No" Role="Result Qualifier" /><ItemRef ItemOID="IT.LB.LBSTRESN" Mandatory="No" Role="Result Qualifier" /><ItemRef ItemOID="IT.LB.LBSTRESU" Mandatory="No" Role="Variable Qualifier" /><ItemRef ItemOID="IT.LB.LBSTNRLO" Mandatory="No" Role="Variable Qualifier" /><ItemRef ItemOID="IT.LB.LBSTNRHI" Mandatory="No" Role="Variable Qualifier" /><ItemRef ItemOID="IT.LB.LBNRIND" Mandatory="No" Role="Variable Qualifier" /><ItemRef ItemOID="IT.LB.LBSPEC" Mandatory="No" Role="Record Qualifier" /><ItemRef ItemOID="IT.LB.LBMETHOD" Mandatory="No" Role="Record Qualifier" /><ItemRef ItemOID="IT.LB.LBLOBXFL" Mandatory="No" Role="Record Qualifier" /><ItemRef ItemOID="IT.LB.LBFAST" Mandatory="No" Role="Record Qualifier" /><ItemRef ItemOID="IT.LB.VISITNUM" Mandatory="No" Role="Timing" /><ItemRef ItemOID="IT.LB.LBDTC" Mandatory="No" Role="Timing" /></ItemGroupDef><ItemGroupDef OID="IG.MB" Name="MB" Domain="MB" def:Structure="One record per microbiology specimen finding per time point per visit per subject" IsReferenceData="No" Repeating="Yes" Purpose="Tabulation" def:StandardOID="ST.SDTMIG"><Description><TranslatedText xml:lang="en">Microbiology Specimen</TranslatedText></Description><ItemRef ItemOID="IT.MB.STUDYID" Mandatory="Yes" Role="Identifier" /><ItemRef ItemOID="IT.MB.DOMAIN" Mandatory="Yes" Role="Identifier" /><ItemRef ItemOID="IT.MB.USUBJID" Mandatory="Yes" Role="Identifier" /><ItemRef ItemOID="IT.MB.MBSEQ" Mandatory="Yes" Role="Identifier" /><ItemRef ItemOID="IT.MB.MBTESTCD" Mandatory="Yes" Role="Topic" /><ItemRef ItemOID="IT.MB.MBTEST" Mandatory="Yes" Role="Synonym Qualifier" /><ItemRef ItemOID="IT.MB.MBTSTDTL" Mandatory="No" Role="Variable Qualifier" /><ItemRef ItemOID="IT.MB.MBORRES" Mandatory="No" Role="Result Qualifier" /><ItemRef ItemOID="IT.MB.MBSTRESC" Mandatory="No" Role="Result Qualifier" /><ItemRef ItemOID="IT.MB.MBSPEC" Mandatory="No" Role="Record Qualifier" /><ItemRef ItemOID="IT.MB.MBMETHOD" Mandatory="No" Role="Record Qualifier" /><ItemRef ItemOID="IT.MB.VISITNUM" Mandatory="No" Role="Timing" /><ItemRef ItemOID="IT.MB.MBDTC" Mandatory="No" Role="Timing" /></ItemGroupDef><ItemGroupDef OID="IG.EC" Name="EC" Domain="EC" def:Structure="One record per protocol-specified study treatment, collected-dosing interval, per subject, per mood" IsReferenceData="No" Repeating="Yes" Purpose="Tabulation" def:StandardOID="ST.SDTMIG"><Description><TranslatedText xml:lang="en">Exposure as Collected</TranslatedText></Description><ItemRef ItemOID="IT.EC.STUDYID" Mandatory="Yes" Role="Identifier" /><ItemRef ItemOID="IT.EC.DOMAIN" Mandatory="Yes" Role="Identifier" /><ItemRef ItemOID="IT.EC.USUBJID" Mandatory="Yes" Role="Identifier" /><ItemRef ItemOID="IT.EC.ECSEQ" Mandatory="Yes" Role="Identifier" /><ItemRef ItemOID="IT.EC.ECREFID" Mandatory="No" Role="Identifier" /><ItemRef ItemOID="IT.EC.ECTRT" Mandatory="Yes" Role="Topic" /><ItemRef ItemOID="IT.EC.ECDOSE" Mandatory="No" Role="Record Qualifier" /><ItemRef ItemOID="IT.EC.ECDOSTXT" Mandatory="No" Role="Record Qualifier" /><ItemRef ItemOID="IT.EC.ECDOSU" Mandatory="No" Role="Variable Qualifier" /><ItemRef ItemOID="IT.EC.ECDOSFRM" Mandatory="No" Role="Variable Qualifier" /><ItemRef ItemOID="IT.EC.ECDOSFRQ" Mandatory="No" Role="Record Qualifier" /><ItemRef ItemOID="IT.EC.ECDOSRGM" Mandatory="No" Role="Record Qualifier" /><ItemRef ItemOID="IT.EC.ECROUTE" Mandatory="No" Role="Variable Qualifier" /><ItemRef ItemOID="IT.EC.ECLOC" Mandatory="No" Role="Record Qualifier" /><ItemRef ItemOID="IT.EC.ECLAT" Mandatory="No" Role="Variable Qualifier" /><ItemRef ItemOID="IT.EC.ECDIR" Mandatory="No" Role="Variable Qualifier" /><ItemRef ItemOID="IT.EC.ECSTDTC" Mandatory="No" Role="Timing" /><ItemRef ItemOID="IT.EC.ECENDTC" Mandatory="No" Role="Timing" /></ItemGroupDef><ItemGroupDef OID="IG.AE" Name="AE" Domain="AE" def:Structure="One record per adverse event per subject" IsReferenceData="No" Repeating="Yes" Purpose="Tabulation" def:StandardOID="ST.SDTMIG"><Description><TranslatedText xml:lang="en">Adverse Events</TranslatedText></Description><ItemRef ItemOID="IT.AE.STUDYID" Mandatory="Yes" Role="Identifier" /><ItemRef ItemOID="IT.AE.DOMAIN" Mandatory="Yes" Role="Identifier" /><ItemRef ItemOID="IT.AE.USUBJID" Mandatory="Yes" Role="Identifier" /><ItemRef ItemOID="IT.AE.AESEQ" Mandatory="Yes" Role="Identifier" /><ItemRef ItemOID="IT.AE.AETERM" Mandatory="Yes" Role="Topic" /><ItemRef ItemOID="IT.AE.AELLT" Mandatory="No" Role="Variable Qualifier" /><ItemRef ItemOID="IT.AE.AELLTCD" Mandatory="No" Role="Variable Qualifier" /><ItemRef ItemOID="IT.AE.AEDECOD" Mandatory="Yes" Role="Synonym Qualifier" /><ItemRef ItemOID="IT.AE.AEPTCD" Mandatory="No" Role="Variable Qualifier" /><ItemRef ItemOID="IT.AE.AEHLT" Mandatory="No" Role="Variable Qualifier" /><ItemRef ItemOID="IT.AE.AEHLTCD" Mandatory="No" Role="Variable Qualifier" /><ItemRef ItemOID="IT.AE.AEHLGT" Mandatory="No" Role="Variable Qualifier" /><ItemRef ItemOID="IT.AE.AEHLGTCD" Mandatory="No" Role="Variable Qualifier" /><ItemRef ItemOID="IT.AE.AECAT" Mandatory="No" Role="Grouping Qualifier" /><ItemRef ItemOID="IT.AE.AESCAT" Mandatory="No" Role="Grouping Qualifier" /><ItemRef ItemOID="IT.AE.AEPRESP" Mandatory="No" Role="Variable Qualifier" /><ItemRef ItemOID="IT.AE.AEBODSYS" Mandatory="No" Role="Record Qualifier" /><ItemRef ItemOID="IT.AE.AEBDSYCD" Mandatory="No" Role="Variable Qualifier" /><ItemRef ItemOID="IT.AE.AESOC" Mandatory="No" Role="Variable Qualifier" /><ItemRef ItemOID="IT.AE.AESOCCD" Mandatory="No" Role="Variable Qualifier" /><ItemRef ItemOID="IT.AE.AELOC" Mandatory="No" Role="Record Qualifier" /><ItemRef ItemOID="IT.AE.AESEV" Mandatory="No" Role="Record Qualifier" /><ItemRef ItemOID="IT.AE.AESER" Mandatory="No" Role="Record Qualifier" /><ItemRef ItemOID="IT.AE.AEACN" Mandatory="No" Role="Record Qualifier" /><ItemRef ItemOID="IT.AE.AEACNOTH" Mandatory="No" Role="Record Qualifier" /><ItemRef ItemOID="IT.AE.AEREL" Mandatory="No" Role="Record Qualifier" /><ItemRef ItemOID="IT.AE.AERELNST" Mandatory="No" Role="Record Qualifier" /><ItemRef ItemOID="IT.AE.AEPATT" Mandatory="No" Role="Record Qualifier" /><ItemRef ItemOID="IT.AE.AEOUT" Mandatory="No" Role="Record Qualifier" /><ItemRef ItemOID="IT.AE.AESCAN" Mandatory="No" Role="Record Qualifier" /><ItemRef ItemOID="IT.AE.AESCONG" Mandatory="No" Role="Record Qualifier" /><ItemRef ItemOID="IT.AE.AESDISAB" Mandatory="No" Role="Record Qualifier" /><ItemRef ItemOID="IT.AE.AESDTH" Mandatory="No" Role="Record Qualifier" /><ItemRef ItemOID="IT.AE.AESHOSP" Mandatory="No" Role="Record Qualifier" /><ItemRef ItemOID="IT.AE.AESLIFE" Mandatory="No" Role="Record Qualifier" /><ItemRef ItemOID="IT.AE.AESOD" Mandatory="No" Role="Record Qualifier" /><ItemRef ItemOID="IT.AE.AESMIE" Mandatory="No" Role="Record Qualifier" /><ItemRef ItemOID="IT.AE.AECONTRT" Mandatory="No" Role="Record Qualifier" /><ItemRef ItemOID="IT.AE.AETOXGR" Mandatory="No" Role="Record Qualifier" /><ItemRef ItemOID="IT.AE.AESTDTC" Mandatory="No" Role="Timing" /><ItemRef ItemOID="IT.AE.AEENDTC" Mandatory="No" Role="Timing" /><ItemRef ItemOID="IT.AE.AEENRF" Mandatory="No" Role="Timing" /><ItemRef ItemOID="IT.AE.AEENRTPT" Mandatory="No" Role="Timing" /><ItemRef ItemOID="IT.AE.AEENTPT" Mandatory="No" Role="Timing" /></ItemGroupDef><ItemGroupDef OID="IG.IE" Name="IE" Domain="IE" def:Structure="One record per inclusion/exclusion criterion not met per subject" IsReferenceData="No" Repeating="Yes" Purpose="Tabulation" def:StandardOID="ST.SDTMIG"><Description><TranslatedText xml:lang="en">Inclusion/Exclusion Criteria Not Met</TranslatedText></Description><ItemRef ItemOID="IT.IE.STUDYID" Mandatory="Yes" Role="Identifier" /><ItemRef ItemOID="IT.IE.DOMAIN" Mandatory="Yes" Role="Identifier" /><ItemRef ItemOID="IT.IE.USUBJID" Mandatory="Yes" Role="Identifier" /><ItemRef ItemOID="IT.IE.IESEQ" Mandatory="Yes" Role="Identifier" /><ItemRef ItemOID="IT.IE.IETESTCD" Mandatory="Yes" Role="Topic" /><ItemRef ItemOID="IT.IE.IETEST" Mandatory="Yes" Role="Synonym Qualifier" /><ItemRef ItemOID="IT.IE.IECAT" Mandatory="Yes" Role="Grouping Qualifier" /><ItemRef ItemOID="IT.IE.IEORRES" Mandatory="Yes" Role="Result Qualifier" /><ItemRef ItemOID="IT.IE.IESTRESC" Mandatory="Yes" Role="Result Qualifier" /></ItemGroupDef><ItemGroupDef OID="IG.SE" Name="SE" Domain="SE" def:Structure="One record per actual Element per subject" IsReferenceData="No" Repeating="Yes" Purpose="Tabulation" def:StandardOID="ST.SDTMIG"><Description><TranslatedText xml:lang="en">Subject Elements</TranslatedText></Description><ItemRef ItemOID="IT.SE.STUDYID" Mandatory="Yes" Role="Identifier" /><ItemRef ItemOID="IT.SE.DOMAIN" Mandatory="Yes" Role="Identifier" /><ItemRef ItemOID="IT.SE.USUBJID" Mandatory="Yes" Role="Identifier" /><ItemRef ItemOID="IT.SE.SESEQ" Mandatory="Yes" Role="Identifier" /><ItemRef ItemOID="IT.SE.ETCD" Mandatory="Yes" Role="Topic" /><ItemRef ItemOID="IT.SE.ELEMENT" Mandatory="No" Role="Synonym Qualifier" /><ItemRef ItemOID="IT.SE.SESTDTC" Mandatory="Yes" Role="Timing" /><ItemRef ItemOID="IT.SE.SEENDTC" Mandatory="No" Role="Timing" /></ItemGroupDef><ItemDef OID="IT.DS.STUDYID" Name="STUDYID" DataType="text" SASFieldName="STUDYID"><Description><TranslatedText xml:lang="en">Study Identifier</TranslatedText></Description></ItemDef><ItemDef OID="IT.DS.DOMAIN" Name="DOMAIN" DataType="text" SASFieldName="DOMAIN"><Description><TranslatedText xml:lang="en">Domain Abbreviation</TranslatedText></Description></ItemDef><ItemDef OID="IT.DS.USUBJID" Name="USUBJID" DataType="text" SASFieldName="USUBJID"><Description><TranslatedText xml:lang="en">Unique Subject Identifier</TranslatedText></Description></ItemDef><ItemDef OID="IT.DS.DSSEQ" Name="DSSEQ" DataType="float" SASFieldName="DSSEQ"><Description><TranslatedText xml:lang="en">Sequence Number</TranslatedText></Description></ItemDef><ItemDef OID="IT.DS.DSTERM" Name="DSTERM" DataType="text" SASFieldName="DSTERM"><Description><TranslatedText xml:lang="en">Reported Term for the Disposition Event</TranslatedText></Description></ItemDef><ItemDef OID="IT.DS.DSDECOD" Name="DSDECOD" DataType="text" SASFieldName="DSDECOD"><Description><TranslatedText xml:lang="en">Standardized Disposition Term</TranslatedText></Description><CodeListRef CodeListOID="CL.NCOMPLT" /></ItemDef><ItemDef OID="IT.DS.DSCAT" Name="DSCAT" DataType="text" SASFieldName="DSCAT"><Description><TranslatedText xml:lang="en">Category for Disposition Event</TranslatedText></Description><CodeListRef CodeListOID="CL.DSCAT" /></ItemDef><ItemDef OID="IT.DS.DSSCAT" Name="DSSCAT" DataType="text" SASFieldName="DSSCAT"><Description><TranslatedText xml:lang="en">Subcategory for Disposition Event</TranslatedText></Description><CodeListRef CodeListOID="CL.DSSCAT" /></ItemDef><ItemDef OID="IT.DS.DSSTDTC" Name="DSSTDTC" DataType="text" SASFieldName="DSSTDTC"><Description><TranslatedText xml:lang="en">Start Date/Time of Disposition Event</TranslatedText></Description></ItemDef><ItemDef OID="IT.DS.DSSTDY" Name="DSSTDY" DataType="float" SASFieldName="DSSTDY"><Description><TranslatedText xml:lang="en">Study Day of Start of Disposition Event</TranslatedText></Description></ItemDef><ItemDef OID="IT.DM.STUDYID" Name="STUDYID" DataType="text" SASFieldName="STUDYID"><Description><TranslatedText xml:lang="en">Study Identifier</TranslatedText></Description></ItemDef><ItemDef OID="IT.DM.DOMAIN" Name="DOMAIN" DataType="text" SASFieldName="DOMAIN"><Description><TranslatedText xml:lang="en">Domain Abbreviation</TranslatedText></Description></ItemDef><ItemDef OID="IT.DM.USUBJID" Name="USUBJID" DataType="text" SASFieldName="USUBJID"><Description><TranslatedText xml:lang="en">Unique Subject Identifier</TranslatedText></Description></ItemDef><ItemDef OID="IT.DM.SUBJID" Name="SUBJID" DataType="text" SASFieldName="SUBJID"><Description><TranslatedText xml:lang="en">Subject Identifier for the Study</TranslatedText></Description></ItemDef><ItemDef OID="IT.DM.RFSTDTC" Name="RFSTDTC" DataType="text" SASFieldName="RFSTDTC"><Description><TranslatedText xml:lang="en">Subject Reference Start Date/Time</TranslatedText></Description></ItemDef><ItemDef OID="IT.DM.RFENDTC" Name="RFENDTC" DataType="text" SASFieldName="RFENDTC"><Description><TranslatedText xml:lang="en">Subject Reference End Date/Time</TranslatedText></Description></ItemDef><ItemDef OID="IT.DM.RFXSTDTC" Name="RFXSTDTC" DataType="text" SASFieldName="RFXSTDTC"><Description><TranslatedText xml:lang="en">Date/Time of First Study Treatment</TranslatedText></Description></ItemDef><ItemDef OID="IT.DM.RFXENDTC" Name="RFXENDTC" DataType="text" SASFieldName="RFXENDTC"><Description><TranslatedText xml:lang="en">Date/Time of Last Study Treatment</TranslatedText></Description></ItemDef><ItemDef OID="IT.DM.RFICDTC" Name="RFICDTC" DataType="text" SASFieldName="RFICDTC"><Description><TranslatedText xml:lang="en">Date/Time of Informed Consent</TranslatedText></Description></ItemDef><ItemDef OID="IT.DM.RFPENDTC" Name="RFPENDTC" DataType="text" SASFieldName="RFPENDTC"><Description><TranslatedText xml:lang="en">Date/Time of End of Participation</TranslatedText></Description></ItemDef><ItemDef OID="IT.DM.DTHDTC" Name="DTHDTC" DataType="text" SASFieldName="DTHDTC"><Description><TranslatedText xml:lang="en">Date/Time of Death</TranslatedText></Description></ItemDef><ItemDef OID="IT.DM.DTHFL" Name="DTHFL" DataType="text" SASFieldName="DTHFL"><Description><TranslatedText xml:lang="en">Subject Death Flag</TranslatedText></Description><CodeListRef CodeListOID="CL.NY" /></ItemDef><ItemDef OID="IT.DM.SITEID" Name="SITEID" DataType="text" SASFieldName="SITEID"><Description><TranslatedText xml:lang="en">Study Site Identifier</TranslatedText></Description></ItemDef><ItemDef OID="IT.DM.AGE" Name="AGE" DataType="float" SASFieldName="AGE"><Description><TranslatedText xml:lang="en">Age</TranslatedText></Description></ItemDef><ItemDef OID="IT.DM.AGEU" Name="AGEU" DataType="text" SASFieldName="AGEU"><Description><TranslatedText xml:lang="en">Age Units</TranslatedText></Description><CodeListRef CodeListOID="CL.AGEU" /></ItemDef><ItemDef OID="IT.DM.SEX" Name="SEX" DataType="text" SASFieldName="SEX"><Description><TranslatedText xml:lang="en">Sex</TranslatedText></Description><CodeListRef CodeListOID="CL.SEX" /></ItemDef><ItemDef OID="IT.DM.RACE" Name="RACE" DataType="text" SASFieldName="RACE"><Description><TranslatedText xml:lang="en">Race</TranslatedText></Description><CodeListRef CodeListOID="CL.RACE" /></ItemDef><ItemDef OID="IT.DM.ETHNIC" Name="ETHNIC" DataType="text" SASFieldName="ETHNIC"><Description><TranslatedText xml:lang="en">Ethnicity</TranslatedText></Description><CodeListRef CodeListOID="CL.ETHNIC" /></ItemDef><ItemDef OID="IT.DM.ARMCD" Name="ARMCD" DataType="text" SASFieldName="ARMCD"><Description><TranslatedText xml:lang="en">Planned Arm Code</TranslatedText></Description></ItemDef><ItemDef OID="IT.DM.ARM" Name="ARM" DataType="text" SASFieldName="ARM"><Description><TranslatedText xml:lang="en">Description of Planned Arm</TranslatedText></Description></ItemDef><ItemDef OID="IT.DM.ACTARMCD" Name="ACTARMCD" DataType="text" SASFieldName="ACTARMCD"><Description><TranslatedText xml:lang="en">Actual Arm Code</TranslatedText></Description></ItemDef><ItemDef OID="IT.DM.ACTARM" Name="ACTARM" DataType="text" SASFieldName="ACTARM"><Description><TranslatedText xml:lang="en">Description of Actual Arm</TranslatedText></Description></ItemDef><ItemDef OID="IT.DM.ARMNRS" Name="ARMNRS" DataType="text" SASFieldName="ARMNRS"><Description><TranslatedText xml:lang="en">Reason Arm and/or Actual Arm is Null</TranslatedText></Description><CodeListRef CodeListOID="CL.ARMNULRS" /></ItemDef><ItemDef OID="IT.DM.ACTARMUD" Name="ACTARMUD" DataType="text" SASFieldName="ACTARMUD"><Description><TranslatedText xml:lang="en">Description of Unplanned Actual Arm</TranslatedText></Description></ItemDef><ItemDef OID="IT.DM.COUNTRY" Name="COUNTRY" DataType="text" SASFieldName="COUNTRY"><Description><TranslatedText xml:lang="en">Country</TranslatedText></Description></ItemDef><ItemDef OID="IT.DM.DMDTC" Name="DMDTC" DataType="text" SASFieldName="DMDTC"><Description><TranslatedText xml:lang="en">Date/Time of Collection</TranslatedText></Description></ItemDef><ItemDef OID="IT.SC.STUDYID" Name="STUDYID" DataType="text" SASFieldName="STUDYID"><Description><TranslatedText xml:lang="en">Study Identifier</TranslatedText></Description></ItemDef><ItemDef OID="IT.SC.DOMAIN" Name="DOMAIN" DataType="text" SASFieldName="DOMAIN"><Description><TranslatedText xml:lang="en">Domain Abbreviation</TranslatedText></Description></ItemDef><ItemDef OID="IT.SC.USUBJID" Name="USUBJID" DataType="text" SASFieldName="USUBJID"><Description><TranslatedText xml:lang="en">Unique Subject Identifier</TranslatedText></Description></ItemDef><ItemDef OID="IT.SC.SCSEQ" Name="SCSEQ" DataType="float" SASFieldName="SCSEQ"><Description><TranslatedText xml:lang="en">Sequence Number</TranslatedText></Description></ItemDef><ItemDef OID="IT.SC.SCTESTCD" Name="SCTESTCD" DataType="text" SASFieldName="SCTESTCD"><Description><TranslatedText xml:lang="en">Subject Characteristic Short Name</TranslatedText></Description><CodeListRef CodeListOID="CL.SCTESTCD" /></ItemDef><ItemDef OID="IT.SC.SCTEST" Name="SCTEST" DataType="text" SASFieldName="SCTEST"><Description><TranslatedText xml:lang="en">Subject Characteristic</TranslatedText></Description><CodeListRef CodeListOID="CL.SCTEST" /></ItemDef><ItemDef OID="IT.SC.SCORRES" Name="SCORRES" DataType="text" SASFieldName="SCORRES"><Description><TranslatedText xml:lang="en">Result or Finding in Original Units</TranslatedText></Description></ItemDef><ItemDef OID="IT.SC.SCORRESU" Name="SCORRESU" DataType="text" SASFieldName="SCORRESU"><Description><TranslatedText xml:lang="en">Original Units</TranslatedText></Description><CodeListRef CodeListOID="CL.UNIT" /></ItemDef><ItemDef OID="IT.SC.SCSTRESC" Name="SCSTRESC" DataType="text" SASFieldName="SCSTRESC"><Description><TranslatedText xml:lang="en">Character Result/Finding in Std Format</TranslatedText></Description></ItemDef><ItemDef OID="IT.SC.SCSTRESN" Name="SCSTRESN" DataType="float" SASFieldName="SCSTRESN"><Description><TranslatedText xml:lang="en">Numeric Result/Finding in Standard Units</TranslatedText></Description></ItemDef><ItemDef OID="IT.SC.SCSTRESU" Name="SCSTRESU" DataType="text" SASFieldName="SCSTRESU"><Description><TranslatedText xml:lang="en">Standard Units</TranslatedText></Description><CodeListRef CodeListOID="CL.UNIT" /></ItemDef><ItemDef OID="IT.SC.SCDTC" Name="SCDTC" DataType="text" SASFieldName="SCDTC"><Description><TranslatedText xml:lang="en">Date/Time of Collection</TranslatedText></Description></ItemDef><ItemDef OID="IT.SC.SCORRES.EDULEVEL" Name="SCORRES" DataType="float" SASFieldName="SCORRES" SignificantDigits="1"><def:Origin Type="Collected" Source="Investigator" /></ItemDef><ItemDef OID="IT.SC.SCORRES.EDUYRNUM" Name="SCORRES" DataType="float" SASFieldName="SCORRES" SignificantDigits="1"><def:Origin Type="Collected" Source="Investigator" /></ItemDef><ItemDef OID="IT.SC.SCORRESU.EDUYRNUM" Name="SCORRESU" DataType="text" SASFieldName="SCORRESU" /><ItemDef OID="IT.MH.STUDYID" Name="STUDYID" DataType="text" SASFieldName="STUDYID"><Description><TranslatedText xml:lang="en">Study Identifier</TranslatedText></Description></ItemDef><ItemDef OID="IT.MH.DOMAIN" Name="DOMAIN" DataType="text" SASFieldName="DOMAIN"><Description><TranslatedText xml:lang="en">Domain Abbreviation</TranslatedText></Description></ItemDef><ItemDef OID="IT.MH.USUBJID" Name="USUBJID" DataType="text" SASFieldName="USUBJID"><Description><TranslatedText xml:lang="en">Unique Subject Identifier</TranslatedText></Description></ItemDef><ItemDef OID="IT.MH.MHSEQ" Name="MHSEQ" DataType="float" SASFieldName="MHSEQ"><Description><TranslatedText xml:lang="en">Sequence Number</TranslatedText></Description></ItemDef><ItemDef OID="IT.MH.MHTERM" Name="MHTERM" DataType="text" SASFieldName="MHTERM"><Description><TranslatedText xml:lang="en">Reported Term for the Medical History</TranslatedText></Description></ItemDef><ItemDef OID="IT.MH.MHDECOD" Name="MHDECOD" DataType="text" SASFieldName="MHDECOD"><Description><TranslatedText xml:lang="en">Dictionary-Derived Term</TranslatedText></Description></ItemDef><ItemDef OID="IT.MH.MHPRESP" Name="MHPRESP" DataType="text" SASFieldName="MHPRESP"><Description><TranslatedText xml:lang="en">Medical History Event Pre-Specified</TranslatedText></Description><CodeListRef CodeListOID="CL.NY" /></ItemDef><ItemDef OID="IT.MH.MHOCCUR" Name="MHOCCUR" DataType="text" SASFieldName="MHOCCUR"><Description><TranslatedText xml:lang="en">Medical History Occurrence</TranslatedText></Description><CodeListRef CodeListOID="CL.NY" /></ItemDef><ItemDef OID="IT.MH.MHENRF" Name="MHENRF" DataType="text" SASFieldName="MHENRF"><Description><TranslatedText xml:lang="en">End Relative to Reference Period</TranslatedText></Description><CodeListRef CodeListOID="CL.STENRF" /></ItemDef><ItemDef OID="IT.MH.MHENRTPT" Name="MHENRTPT" DataType="text" SASFieldName="MHENRTPT"><Description><TranslatedText xml:lang="en">End Relative to Reference Time Point</TranslatedText></Description><CodeListRef CodeListOID="CL.STENRF" /></ItemDef><ItemDef OID="IT.MH.MHENTPT" Name="MHENTPT" DataType="text" SASFieldName="MHENTPT"><Description><TranslatedText xml:lang="en">End Reference Time Point</TranslatedText></Description></ItemDef><ItemDef OID="IT.SU.STUDYID" Name="STUDYID" DataType="text" SASFieldName="STUDYID"><Description><TranslatedText xml:lang="en">Study Identifier</TranslatedText></Description></ItemDef><ItemDef OID="IT.SU.DOMAIN" Name="DOMAIN" DataType="text" SASFieldName="DOMAIN"><Description><TranslatedText xml:lang="en">Domain Abbreviation</TranslatedText></Description></ItemDef><ItemDef OID="IT.SU.USUBJID" Name="USUBJID" DataType="text" SASFieldName="USUBJID"><Description><TranslatedText xml:lang="en">Unique Subject Identifier</TranslatedText></Description></ItemDef><ItemDef OID="IT.SU.SUSEQ" Name="SUSEQ" DataType="float" SASFieldName="SUSEQ"><Description><TranslatedText xml:lang="en">Sequence Number</TranslatedText></Description></ItemDef><ItemDef OID="IT.SU.SUTRT" Name="SUTRT" DataType="text" SASFieldName="SUTRT"><Description><TranslatedText xml:lang="en">Reported Name of Substance</TranslatedText></Description></ItemDef><ItemDef OID="IT.SU.SUCAT" Name="SUCAT" DataType="text" SASFieldName="SUCAT"><Description><TranslatedText xml:lang="en">Category for Substance Use</TranslatedText></Description></ItemDef><ItemDef OID="IT.SU.SUSCAT" Name="SUSCAT" DataType="text" SASFieldName="SUSCAT"><Description><TranslatedText xml:lang="en">Subcategory for Substance Use</TranslatedText></Description></ItemDef><ItemDef OID="IT.SU.SUPRESP" Name="SUPRESP" DataType="text" SASFieldName="SUPRESP"><Description><TranslatedText xml:lang="en">SU Pre-Specified</TranslatedText></Description><CodeListRef CodeListOID="CL.NY" /></ItemDef><ItemDef OID="IT.SU.SUOCCUR" Name="SUOCCUR" DataType="text" SASFieldName="SUOCCUR"><Description><TranslatedText xml:lang="en">SU Occurrence</TranslatedText></Description><CodeListRef CodeListOID="CL.NY" /></ItemDef><ItemDef OID="IT.SU.SUDOSE" Name="SUDOSE" DataType="float" SASFieldName="SUDOSE"><Description><TranslatedText xml:lang="en">Substance Use Consumption</TranslatedText></Description></ItemDef><ItemDef OID="IT.SU.SUDOSTXT" Name="SUDOSTXT" DataType="text" SASFieldName="SUDOSTXT"><Description><TranslatedText xml:lang="en">Substance Use Consumption Text</TranslatedText></Description></ItemDef><ItemDef OID="IT.SU.SUDOSU" Name="SUDOSU" DataType="text" SASFieldName="SUDOSU"><Description><TranslatedText xml:lang="en">Consumption Units</TranslatedText></Description><CodeListRef CodeListOID="CL.UNIT" /></ItemDef><ItemDef OID="IT.SU.SUDOSFRQ" Name="SUDOSFRQ" DataType="text" SASFieldName="SUDOSFRQ"><Description><TranslatedText xml:lang="en">Use Frequency Per Interval</TranslatedText></Description><CodeListRef CodeListOID="CL.FREQ" /></ItemDef><ItemDef OID="IT.SU.SUSTDTC" Name="SUSTDTC" DataType="text" SASFieldName="SUSTDTC"><Description><TranslatedText xml:lang="en">Start Date/Time of Substance Use</TranslatedText></Description></ItemDef><ItemDef OID="IT.SU.SUENDTC" Name="SUENDTC" DataType="text" SASFieldName="SUENDTC"><Description><TranslatedText xml:lang="en">End Date/Time of Substance Use</TranslatedText></Description></ItemDef><ItemDef OID="IT.SU.SUDUR" Name="SUDUR" DataType="text" SASFieldName="SUDUR"><Description><TranslatedText xml:lang="en">Duration of Substance Use</TranslatedText></Description></ItemDef><ItemDef OID="IT.SU.SUSTRF" Name="SUSTRF" DataType="text" SASFieldName="SUSTRF"><Description><TranslatedText xml:lang="en">Start Relative to Reference Period</TranslatedText></Description><CodeListRef CodeListOID="CL.STENRF" /></ItemDef><ItemDef OID="IT.SU.SUENRF" Name="SUENRF" DataType="text" SASFieldName="SUENRF"><Description><TranslatedText xml:lang="en">End Relative to Reference Period</TranslatedText></Description><CodeListRef CodeListOID="CL.STENRF" /></ItemDef><ItemDef OID="IT.SU.SUSTRTPT" Name="SUSTRTPT" DataType="text" SASFieldName="SUSTRTPT"><Description><TranslatedText xml:lang="en">Start Relative to Reference Time Point</TranslatedText></Description><CodeListRef CodeListOID="CL.STENRF" /></ItemDef><ItemDef OID="IT.SU.SUSTTPT" Name="SUSTTPT" DataType="text" SASFieldName="SUSTTPT"><Description><TranslatedText xml:lang="en">Start Reference Time Point</TranslatedText></Description></ItemDef><ItemDef OID="IT.SU.SUENRTPT" Name="SUENRTPT" DataType="text" SASFieldName="SUENRTPT"><Description><TranslatedText xml:lang="en">End Relative to Reference Time Point</TranslatedText></Description><CodeListRef CodeListOID="CL.STENRF" /></ItemDef><ItemDef OID="IT.SU.SUENTPT" Name="SUENTPT" DataType="text" SASFieldName="SUENTPT"><Description><TranslatedText xml:lang="en">End Reference Time Point</TranslatedText></Description></ItemDef><ItemDef OID="IT.PR.STUDYID" Name="STUDYID" DataType="text" SASFieldName="STUDYID"><Description><TranslatedText xml:lang="en">Study Identifier</TranslatedText></Description></ItemDef><ItemDef OID="IT.PR.DOMAIN" Name="DOMAIN" DataType="text" SASFieldName="DOMAIN"><Description><TranslatedText xml:lang="en">Domain Abbreviation</TranslatedText></Description></ItemDef><ItemDef OID="IT.PR.USUBJID" Name="USUBJID" DataType="text" SASFieldName="USUBJID"><Description><TranslatedText xml:lang="en">Unique Subject Identifier</TranslatedText></Description></ItemDef><ItemDef OID="IT.PR.PRSEQ" Name="PRSEQ" DataType="float" SASFieldName="PRSEQ"><Description><TranslatedText xml:lang="en">Sequence Number</TranslatedText></Description></ItemDef><ItemDef OID="IT.PR.PRTRT" Name="PRTRT" DataType="text" SASFieldName="PRTRT"><Description><TranslatedText xml:lang="en">Reported Name of Procedure</TranslatedText></Description></ItemDef><ItemDef OID="IT.PR.PRDECOD" Name="PRDECOD" DataType="text" SASFieldName="PRDECOD"><Description><TranslatedText xml:lang="en">Standardized Procedure Name</TranslatedText></Description><CodeListRef CodeListOID="CL.PROCEDUR" /></ItemDef><ItemDef OID="IT.PR.PRCAT" Name="PRCAT" DataType="text" SASFieldName="PRCAT"><Description><TranslatedText xml:lang="en">Category</TranslatedText></Description></ItemDef><ItemDef OID="IT.PR.PRSCAT" Name="PRSCAT" DataType="text" SASFieldName="PRSCAT"><Description><TranslatedText xml:lang="en">Subcategory</TranslatedText></Description></ItemDef><ItemDef OID="IT.PR.PRPRESP" Name="PRPRESP" DataType="text" SASFieldName="PRPRESP"><Description><TranslatedText xml:lang="en">Pre-specified</TranslatedText></Description><CodeListRef CodeListOID="CL.NY" /></ItemDef><ItemDef OID="IT.PR.PROCCUR" Name="PROCCUR" DataType="text" SASFieldName="PROCCUR"><Description><TranslatedText xml:lang="en">Occurrence</TranslatedText></Description><CodeListRef CodeListOID="CL.NY" /></ItemDef><ItemDef OID="IT.PR.PRLOC" Name="PRLOC" DataType="text" SASFieldName="PRLOC"><Description><TranslatedText xml:lang="en">Location of Procedure</TranslatedText></Description><CodeListRef CodeListOID="CL.LOC" /></ItemDef><ItemDef OID="IT.PR.PRSTDTC" Name="PRSTDTC" DataType="text" SASFieldName="PRSTDTC"><Description><TranslatedText xml:lang="en">Start Date/Time of Procedure</TranslatedText></Description></ItemDef><ItemDef OID="IT.PR.PRENDTC" Name="PRENDTC" DataType="text" SASFieldName="PRENDTC"><Description><TranslatedText xml:lang="en">End Date/Time of Procedure</TranslatedText></Description></ItemDef><ItemDef OID="IT.VS.STUDYID" Name="STUDYID" DataType="text" SASFieldName="STUDYID"><Description><TranslatedText xml:lang="en">Study Identifier</TranslatedText></Description></ItemDef><ItemDef OID="IT.VS.DOMAIN" Name="DOMAIN" DataType="text" SASFieldName="DOMAIN"><Description><TranslatedText xml:lang="en">Domain Abbreviation</TranslatedText></Description></ItemDef><ItemDef OID="IT.VS.USUBJID" Name="USUBJID" DataType="text" SASFieldName="USUBJID"><Description><TranslatedText xml:lang="en">Unique Subject Identifier</TranslatedText></Description></ItemDef><ItemDef OID="IT.VS.VSSEQ" Name="VSSEQ" DataType="float" SASFieldName="VSSEQ"><Description><TranslatedText xml:lang="en">Sequence Number</TranslatedText></Description></ItemDef><ItemDef OID="IT.VS.VSTESTCD" Name="VSTESTCD" DataType="text" SASFieldName="VSTESTCD"><Description><TranslatedText xml:lang="en">Vital Signs Test Short Name</TranslatedText></Description><CodeListRef CodeListOID="CL.VSTESTCD" /></ItemDef><ItemDef OID="IT.VS.VSTEST" Name="VSTEST" DataType="text" SASFieldName="VSTEST"><Description><TranslatedText xml:lang="en">Vital Signs Test Name</TranslatedText></Description><CodeListRef CodeListOID="CL.VSTEST" /></ItemDef><ItemDef OID="IT.VS.VSPOS" Name="VSPOS" DataType="text" SASFieldName="VSPOS"><Description><TranslatedText xml:lang="en">Vital Signs Position of Subject</TranslatedText></Description><CodeListRef CodeListOID="CL.POSITION" /></ItemDef><ItemDef OID="IT.VS.VSORRES" Name="VSORRES" DataType="text" SASFieldName="VSORRES"><Description><TranslatedText xml:lang="en">Result or Finding in Original Units</TranslatedText></Description></ItemDef><ItemDef OID="IT.VS.VSORRESU" Name="VSORRESU" DataType="text" SASFieldName="VSORRESU"><Description><TranslatedText xml:lang="en">Original Units</TranslatedText></Description><CodeListRef CodeListOID="CL.VSRESU" /></ItemDef><ItemDef OID="IT.VS.VSSTRESC" Name="VSSTRESC" DataType="text" SASFieldName="VSSTRESC"><Description><TranslatedText xml:lang="en">Character Result/Finding in Std Format</TranslatedText></Description></ItemDef><ItemDef OID="IT.VS.VSSTRESN" Name="VSSTRESN" DataType="float" SASFieldName="VSSTRESN"><Description><TranslatedText xml:lang="en">Numeric Result/Finding in Standard Units</TranslatedText></Description></ItemDef><ItemDef OID="IT.VS.VSSTRESU" Name="VSSTRESU" DataType="text" SASFieldName="VSSTRESU"><Description><TranslatedText xml:lang="en">Standard Units</TranslatedText></Description><CodeListRef CodeListOID="CL.VSRESU" /></ItemDef><ItemDef OID="IT.VS.VSLOC" Name="VSLOC" DataType="text" SASFieldName="VSLOC"><Description><TranslatedText xml:lang="en">Location of Vital Signs Measurement</TranslatedText></Description><CodeListRef CodeListOID="CL.LOC" /></ItemDef><ItemDef OID="IT.VS.VSLAT" Name="VSLAT" DataType="text" SASFieldName="VSLAT"><Description><TranslatedText xml:lang="en">Laterality</TranslatedText></Description><CodeListRef CodeListOID="CL.LAT" /></ItemDef><ItemDef OID="IT.VS.VSLOBXFL" Name="VSLOBXFL" DataType="text" SASFieldName="VSLOBXFL"><Description><TranslatedText xml:lang="en">Last Observation Before Exposure Flag</TranslatedText></Description><CodeListRef CodeListOID="CL.NY" /></ItemDef><ItemDef OID="IT.VS.VISITNUM" Name="VISITNUM" DataType="float" SASFieldName="VISITNUM"><Description><TranslatedText xml:lang="en">Visit Number</TranslatedText></Description></ItemDef><ItemDef OID="IT.VS.VSDTC" Name="VSDTC" DataType="text" SASFieldName="VSDTC"><Description><TranslatedText xml:lang="en">Date/Time of Measurements</TranslatedText></Description></ItemDef><ItemDef OID="IT.VS.VSORRES.TEMP" Name="VSORRES" DataType="float" SASFieldName="VSORRES" SignificantDigits="3"><def:Origin Type="Collected" Source="Investigator" /></ItemDef><ItemDef OID="IT.VS.VSORRES.WEIGHT" Name="VSORRES" DataType="float" SASFieldName="VSORRES" SignificantDigits="3"><def:Origin Type="Collected" Source="Investigator" /></ItemDef><ItemDef OID="IT.VS.VSORRES.HEIGHT" Name="VSORRES" DataType="float" SASFieldName="VSORRES" SignificantDigits="3"><def:Origin Type="Collected" Source="Investigator" /></ItemDef><ItemDef OID="IT.VS.VSORRES.PULSE" Name="VSORRES" DataType="integer" SASFieldName="VSORRES"><def:Origin Type="Collected" Source="Investigator" /></ItemDef><ItemDef OID="IT.VS.VSORRES.RESP" Name="VSORRES" DataType="integer" SASFieldName="VSORRES"><def:Origin Type="Collected" Source="Investigator" /></ItemDef><ItemDef OID="IT.VS.VSORRES.BMI" Name="VSORRES" DataType="float" SASFieldName="VSORRES"><def:Origin Type="Derived" Source="Sponsor" /></ItemDef><ItemDef OID="IT.VS.VSORRES.SYSBP" Name="VSORRES" DataType="integer" SASFieldName="VSORRES"><def:Origin Type="Collected" Source="Investigator" /></ItemDef><ItemDef OID="IT.VS.VSORRES.DIABP" Name="VSORRES" DataType="integer" SASFieldName="VSORRES"><def:Origin Type="Collected" Source="Investigator" /></ItemDef><ItemDef OID="IT.VS.VSORRES.HR" Name="VSORRES" DataType="integer" SASFieldName="VSORRES"><def:Origin Type="Collected" Source="Investigator" /></ItemDef><ItemDef OID="IT.VS.VSORRESU.TEMP" Name="VSORRESU" DataType="text" SASFieldName="VSORRESU" /><ItemDef OID="IT.VS.VSORRESU.WEIGHT" Name="VSORRESU" DataType="text" SASFieldName="VSORRESU" /><ItemDef OID="IT.VS.VSORRESU.HEIGHT" Name="VSORRESU" DataType="text" SASFieldName="VSORRESU" /><ItemDef OID="IT.VS.VSORRESU.PULSE" Name="VSORRESU" DataType="text" SASFieldName="VSORRESU" /><ItemDef OID="IT.VS.VSORRESU.RESP" Name="VSORRESU" DataType="text" SASFieldName="VSORRESU" /><ItemDef OID="IT.VS.VSORRESU.BMI" Name="VSORRESU" DataType="text" SASFieldName="VSORRESU" /><ItemDef OID="IT.VS.VSORRESU.SYSBP" Name="VSORRESU" DataType="text" SASFieldName="VSORRESU" /><ItemDef OID="IT.VS.VSORRESU.DIABP" Name="VSORRESU" DataType="text" SASFieldName="VSORRESU" /><ItemDef OID="IT.VS.VSORRESU.HR" Name="VSORRESU" DataType="text" SASFieldName="VSORRESU" /><ItemDef OID="IT.EG.STUDYID" Name="STUDYID" DataType="text" SASFieldName="STUDYID"><Description><TranslatedText xml:lang="en">Study Identifier</TranslatedText></Description></ItemDef><ItemDef OID="IT.EG.DOMAIN" Name="DOMAIN" DataType="text" SASFieldName="DOMAIN"><Description><TranslatedText xml:lang="en">Domain Abbreviation</TranslatedText></Description></ItemDef><ItemDef OID="IT.EG.USUBJID" Name="USUBJID" DataType="text" SASFieldName="USUBJID"><Description><TranslatedText xml:lang="en">Unique Subject Identifier</TranslatedText></Description></ItemDef><ItemDef OID="IT.EG.EGSEQ" Name="EGSEQ" DataType="float" SASFieldName="EGSEQ"><Description><TranslatedText xml:lang="en">Sequence Number</TranslatedText></Description></ItemDef><ItemDef OID="IT.EG.EGTESTCD" Name="EGTESTCD" DataType="text" SASFieldName="EGTESTCD"><Description><TranslatedText xml:lang="en">ECG Test or Examination Short Name</TranslatedText></Description><CodeListRef CodeListOID="CL.EGTESTCD" /></ItemDef><ItemDef OID="IT.EG.EGTEST" Name="EGTEST" DataType="text" SASFieldName="EGTEST"><Description><TranslatedText xml:lang="en">ECG Test or Examination Name</TranslatedText></Description><CodeListRef CodeListOID="CL.EGTEST" /></ItemDef><ItemDef OID="IT.EG.EGCAT" Name="EGCAT" DataType="text" SASFieldName="EGCAT"><Description><TranslatedText xml:lang="en">Category for ECG</TranslatedText></Description></ItemDef><ItemDef OID="IT.EG.EGPOS" Name="EGPOS" DataType="text" SASFieldName="EGPOS"><Description><TranslatedText xml:lang="en">ECG Position of Subject</TranslatedText></Description><CodeListRef CodeListOID="CL.POSITION" /></ItemDef><ItemDef OID="IT.EG.EGORRES" Name="EGORRES" DataType="text" SASFieldName="EGORRES"><Description><TranslatedText xml:lang="en">Result or Finding in Original Units</TranslatedText></Description></ItemDef><ItemDef OID="IT.EG.EGORRESU" Name="EGORRESU" DataType="text" SASFieldName="EGORRESU"><Description><TranslatedText xml:lang="en">Original Units</TranslatedText></Description><CodeListRef CodeListOID="CL.UNIT" /></ItemDef><ItemDef OID="IT.EG.EGSTRESC" Name="EGSTRESC" DataType="text" SASFieldName="EGSTRESC"><Description><TranslatedText xml:lang="en">Character Result/Finding in Std Format</TranslatedText></Description><CodeListRef CodeListOID="CL.EGSTRESC" /></ItemDef><ItemDef OID="IT.EG.EGSTRESN" Name="EGSTRESN" DataType="float" SASFieldName="EGSTRESN"><Description><TranslatedText xml:lang="en">Numeric Result/Finding in Standard Units</TranslatedText></Description></ItemDef><ItemDef OID="IT.EG.EGSTRESU" Name="EGSTRESU" DataType="text" SASFieldName="EGSTRESU"><Description><TranslatedText xml:lang="en">Standard Units</TranslatedText></Description><CodeListRef CodeListOID="CL.UNIT" /></ItemDef><ItemDef OID="IT.EG.EGMETHOD" Name="EGMETHOD" DataType="text" SASFieldName="EGMETHOD"><Description><TranslatedText xml:lang="en">Method of Test or Examination</TranslatedText></Description><CodeListRef CodeListOID="CL.EGMETHOD" /></ItemDef><ItemDef OID="IT.EG.EGLOBXFL" Name="EGLOBXFL" DataType="text" SASFieldName="EGLOBXFL"><Description><TranslatedText xml:lang="en">Last Observation Before Exposure Flag</TranslatedText></Description><CodeListRef CodeListOID="CL.NY" /></ItemDef><ItemDef OID="IT.EG.EGEVAL" Name="EGEVAL" DataType="text" SASFieldName="EGEVAL"><Description><TranslatedText xml:lang="en">Evaluator</TranslatedText></Description><CodeListRef CodeListOID="CL.EVAL" /></ItemDef><ItemDef OID="IT.EG.EGCLSIG" Name="EGCLSIG" DataType="text" SASFieldName="EGCLSIG"><Description><TranslatedText xml:lang="en">Clinically Significant, Collected</TranslatedText></Description><CodeListRef CodeListOID="CL.NY" /></ItemDef><ItemDef OID="IT.EG.VISITNUM" Name="VISITNUM" DataType="float" SASFieldName="VISITNUM"><Description><TranslatedText xml:lang="en">Visit Number</TranslatedText></Description></ItemDef><ItemDef OID="IT.EG.EGDTC" Name="EGDTC" DataType="text" SASFieldName="EGDTC"><Description><TranslatedText xml:lang="en">Date/Time of ECG</TranslatedText></Description></ItemDef><ItemDef OID="IT.EG.EGORRES.INTP" Name="EGORRES" DataType="text" SASFieldName="EGORRES" /><ItemDef OID="IT.EG.EGORRES.AVCOND" Name="EGORRES" DataType="text" SASFieldName="EGORRES" SignificantDigits="3" /><ItemDef OID="IT.EG.EGORRES.AXISVOLT" Name="EGORRES" DataType="text" SASFieldName="EGORRES" SignificantDigits="3" /><ItemDef OID="IT.EG.EGORRES.CHYPTENL" Name="EGORRES" DataType="text" SASFieldName="EGORRES" SignificantDigits="3" /><ItemDef OID="IT.EG.EGORRES.TECHQUAL" Name="EGORRES" DataType="text" SASFieldName="EGORRES" /><ItemDef OID="IT.EG.EGORRES.IVTIACD" Name="EGORRES" DataType="text" SASFieldName="EGORRES" SignificantDigits="3" /><ItemDef OID="IT.EG.EGORRES.PACEMAKR" Name="EGORRES" DataType="text" SASFieldName="EGORRES" SignificantDigits="3" /><ItemDef OID="IT.EG.EGORRES.RHYNOS" Name="EGORRES" DataType="text" SASFieldName="EGORRES" SignificantDigits="3" /><ItemDef OID="IT.EG.EGORRES.SNRARRY" Name="EGORRES" DataType="text" SASFieldName="EGORRES" SignificantDigits="3" /><ItemDef OID="IT.EG.EGORRES.SPRARRY" Name="EGORRES" DataType="text" SASFieldName="EGORRES" SignificantDigits="3" /><ItemDef OID="IT.EG.EGORRES.SPRTARRY" Name="EGORRES" DataType="text" SASFieldName="EGORRES" SignificantDigits="3" /><ItemDef OID="IT.EG.EGORRES.VTARRY" Name="EGORRES" DataType="text" SASFieldName="EGORRES" SignificantDigits="3" /><ItemDef OID="IT.EG.EGORRES.VTTARRY" Name="EGORRES" DataType="text" SASFieldName="EGORRES" SignificantDigits="3" /><ItemDef OID="IT.EG.EGORRES.PRAG" Name="EGORRES" DataType="text" SASFieldName="EGORRES" SignificantDigits="3" /><ItemDef OID="IT.EG.EGORRES.QRSAG" Name="EGORRES" DataType="text" SASFieldName="EGORRES" SignificantDigits="3" /><ItemDef OID="IT.EG.EGORRES.QTAG" Name="EGORRES" DataType="text" SASFieldName="EGORRES" SignificantDigits="3" /><ItemDef OID="IT.EG.EGORRES.QTCBAG" Name="EGORRES" DataType="text" SASFieldName="EGORRES" SignificantDigits="3" /><ItemDef OID="IT.EG.EGORRES.QTCFAG" Name="EGORRES" DataType="text" SASFieldName="EGORRES" SignificantDigits="3" /><ItemDef OID="IT.EG.EGORRES.RRAG" Name="EGORRES" DataType="text" SASFieldName="EGORRES" SignificantDigits="3" /><ItemDef OID="IT.EG.EGORRES.EGHRMN" Name="EGORRES" DataType="text" SASFieldName="EGORRES" SignificantDigits="3" /><ItemDef OID="IT.EG.EGORRES.QRS_AXIS" Name="EGORRES" DataType="text" SASFieldName="EGORRES" SignificantDigits="3" /><ItemDef OID="IT.EG.EGORRESU.PRAG" Name="EGORRESU" DataType="text" SASFieldName="EGORRESU" /><ItemDef OID="IT.EG.EGORRESU.QRSAG" Name="EGORRESU" DataType="text" SASFieldName="EGORRESU" /><ItemDef OID="IT.EG.EGORRESU.QTAG" Name="EGORRESU" DataType="text" SASFieldName="EGORRESU" /><ItemDef OID="IT.EG.EGORRESU.QTCBAG" Name="EGORRESU" DataType="text" SASFieldName="EGORRESU" /><ItemDef OID="IT.EG.EGORRESU.QTCFAG" Name="EGORRESU" DataType="text" SASFieldName="EGORRESU" /><ItemDef OID="IT.EG.EGORRESU.RRAG" Name="EGORRESU" DataType="text" SASFieldName="EGORRESU" /><ItemDef OID="IT.EG.EGORRESU.EGHRMN" Name="EGORRESU" DataType="text" SASFieldName="EGORRESU" /><ItemDef OID="IT.EG.EGORRESU.QRS_AXIS" Name="EGORRESU" DataType="text" SASFieldName="EGORRESU" /><ItemDef OID="IT.CM.STUDYID" Name="STUDYID" DataType="text" SASFieldName="STUDYID"><Description><TranslatedText xml:lang="en">Study Identifier</TranslatedText></Description></ItemDef><ItemDef OID="IT.CM.DOMAIN" Name="DOMAIN" DataType="text" SASFieldName="DOMAIN"><Description><TranslatedText xml:lang="en">Domain Abbreviation</TranslatedText></Description></ItemDef><ItemDef OID="IT.CM.USUBJID" Name="USUBJID" DataType="text" SASFieldName="USUBJID"><Description><TranslatedText xml:lang="en">Unique Subject Identifier</TranslatedText></Description></ItemDef><ItemDef OID="IT.CM.CMSEQ" Name="CMSEQ" DataType="float" SASFieldName="CMSEQ"><Description><TranslatedText xml:lang="en">Sequence Number</TranslatedText></Description></ItemDef><ItemDef OID="IT.CM.CMTRT" Name="CMTRT" DataType="text" SASFieldName="CMTRT"><Description><TranslatedText xml:lang="en">Reported Name of Drug, Med, or Therapy</TranslatedText></Description></ItemDef><ItemDef OID="IT.CM.CMDECOD" Name="CMDECOD" DataType="text" SASFieldName="CMDECOD"><Description><TranslatedText xml:lang="en">Standardized Medication Name</TranslatedText></Description></ItemDef><ItemDef OID="IT.CM.CMCAT" Name="CMCAT" DataType="text" SASFieldName="CMCAT"><Description><TranslatedText xml:lang="en">Category for Medication</TranslatedText></Description></ItemDef><ItemDef OID="IT.CM.CMSCAT" Name="CMSCAT" DataType="text" SASFieldName="CMSCAT"><Description><TranslatedText xml:lang="en">Subcategory for Medication</TranslatedText></Description></ItemDef><ItemDef OID="IT.CM.CMPRESP" Name="CMPRESP" DataType="text" SASFieldName="CMPRESP"><Description><TranslatedText xml:lang="en">CM Pre-specified</TranslatedText></Description><CodeListRef CodeListOID="CL.NY" /></ItemDef><ItemDef OID="IT.CM.CMOCCUR" Name="CMOCCUR" DataType="text" SASFieldName="CMOCCUR"><Description><TranslatedText xml:lang="en">CM Occurrence</TranslatedText></Description><CodeListRef CodeListOID="CL.NY" /></ItemDef><ItemDef OID="IT.CM.CMINDC" Name="CMINDC" DataType="text" SASFieldName="CMINDC"><Description><TranslatedText xml:lang="en">Indication</TranslatedText></Description></ItemDef><ItemDef OID="IT.CM.CMDOSE" Name="CMDOSE" DataType="float" SASFieldName="CMDOSE"><Description><TranslatedText xml:lang="en">Dose per Administration</TranslatedText></Description></ItemDef><ItemDef OID="IT.CM.CMDOSU" Name="CMDOSU" DataType="text" SASFieldName="CMDOSU"><Description><TranslatedText xml:lang="en">Dose Units</TranslatedText></Description><CodeListRef CodeListOID="CL.UNIT" /></ItemDef><ItemDef OID="IT.CM.CMDOSFRM" Name="CMDOSFRM" DataType="text" SASFieldName="CMDOSFRM"><Description><TranslatedText xml:lang="en">Dose Form</TranslatedText></Description><CodeListRef CodeListOID="CL.FRM" /></ItemDef><ItemDef OID="IT.CM.CMROUTE" Name="CMROUTE" DataType="text" SASFieldName="CMROUTE"><Description><TranslatedText xml:lang="en">Route of Administration</TranslatedText></Description><CodeListRef CodeListOID="CL.ROUTE" /></ItemDef><ItemDef OID="IT.CM.CMSTDTC" Name="CMSTDTC" DataType="text" SASFieldName="CMSTDTC"><Description><TranslatedText xml:lang="en">Start Date/Time of Medication</TranslatedText></Description></ItemDef><ItemDef OID="IT.CM.CMENDTC" Name="CMENDTC" DataType="text" SASFieldName="CMENDTC"><Description><TranslatedText xml:lang="en">End Date/Time of Medication</TranslatedText></Description></ItemDef><ItemDef OID="IT.LB.STUDYID" Name="STUDYID" DataType="text" SASFieldName="STUDYID"><Description><TranslatedText xml:lang="en">Study Identifier</TranslatedText></Description></ItemDef><ItemDef OID="IT.LB.DOMAIN" Name="DOMAIN" DataType="text" SASFieldName="DOMAIN"><Description><TranslatedText xml:lang="en">Domain Abbreviation</TranslatedText></Description></ItemDef><ItemDef OID="IT.LB.USUBJID" Name="USUBJID" DataType="text" SASFieldName="USUBJID"><Description><TranslatedText xml:lang="en">Unique Subject Identifier</TranslatedText></Description></ItemDef><ItemDef OID="IT.LB.LBSEQ" Name="LBSEQ" DataType="float" SASFieldName="LBSEQ"><Description><TranslatedText xml:lang="en">Sequence Number</TranslatedText></Description></ItemDef><ItemDef OID="IT.LB.LBTESTCD" Name="LBTESTCD" DataType="text" SASFieldName="LBTESTCD"><Description><TranslatedText xml:lang="en">Lab Test or Examination Short Name</TranslatedText></Description><CodeListRef CodeListOID="CL.LBTESTCD" /></ItemDef><ItemDef OID="IT.LB.LBTEST" Name="LBTEST" DataType="text" SASFieldName="LBTEST"><Description><TranslatedText xml:lang="en">Lab Test or Examination Name</TranslatedText></Description><CodeListRef CodeListOID="CL.LBTEST" /></ItemDef><ItemDef OID="IT.LB.LBCAT" Name="LBCAT" DataType="text" SASFieldName="LBCAT"><Description><TranslatedText xml:lang="en">Category for Lab Test</TranslatedText></Description></ItemDef><ItemDef OID="IT.LB.LBORRES" Name="LBORRES" DataType="text" SASFieldName="LBORRES"><Description><TranslatedText xml:lang="en">Result or Finding in Original Units</TranslatedText></Description></ItemDef><ItemDef OID="IT.LB.LBORRESU" Name="LBORRESU" DataType="text" SASFieldName="LBORRESU"><Description><TranslatedText xml:lang="en">Original Units</TranslatedText></Description><CodeListRef CodeListOID="CL.UNIT" /></ItemDef><ItemDef OID="IT.LB.LBORNRLO" Name="LBORNRLO" DataType="text" SASFieldName="LBORNRLO"><Description><TranslatedText xml:lang="en">Reference Range Lower Limit in Orig Unit</TranslatedText></Description></ItemDef><ItemDef OID="IT.LB.LBORNRHI" Name="LBORNRHI" DataType="text" SASFieldName="LBORNRHI"><Description><TranslatedText xml:lang="en">Reference Range Upper Limit in Orig Unit</TranslatedText></Description></ItemDef><ItemDef OID="IT.LB.LBSTRESC" Name="LBSTRESC" DataType="text" SASFieldName="LBSTRESC"><Description><TranslatedText xml:lang="en">Character Result/Finding in Std Format</TranslatedText></Description><CodeListRef CodeListOID="CL.LBSTRESC" /></ItemDef><ItemDef OID="IT.LB.LBSTRESN" Name="LBSTRESN" DataType="float" SASFieldName="LBSTRESN"><Description><TranslatedText xml:lang="en">Numeric Result/Finding in Standard Units</TranslatedText></Description></ItemDef><ItemDef OID="IT.LB.LBSTRESU" Name="LBSTRESU" DataType="text" SASFieldName="LBSTRESU"><Description><TranslatedText xml:lang="en">Standard Units</TranslatedText></Description><CodeListRef CodeListOID="CL.UNIT" /></ItemDef><ItemDef OID="IT.LB.LBSTNRLO" Name="LBSTNRLO" DataType="float" SASFieldName="LBSTNRLO"><Description><TranslatedText xml:lang="en">Reference Range Lower Limit-Std Units</TranslatedText></Description></ItemDef><ItemDef OID="IT.LB.LBSTNRHI" Name="LBSTNRHI" DataType="float" SASFieldName="LBSTNRHI"><Description><TranslatedText xml:lang="en">Reference Range Upper Limit-Std Units</TranslatedText></Description></ItemDef><ItemDef OID="IT.LB.LBNRIND" Name="LBNRIND" DataType="text" SASFieldName="LBNRIND"><Description><TranslatedText xml:lang="en">Reference Range Indicator</TranslatedText></Description><CodeListRef CodeListOID="CL.NRIND" /></ItemDef><ItemDef OID="IT.LB.LBSPEC" Name="LBSPEC" DataType="text" SASFieldName="LBSPEC"><Description><TranslatedText xml:lang="en">Specimen Type</TranslatedText></Description><CodeListRef CodeListOID="CL.SPECTYPE" /></ItemDef><ItemDef OID="IT.LB.LBMETHOD" Name="LBMETHOD" DataType="text" SASFieldName="LBMETHOD"><Description><TranslatedText xml:lang="en">Method of Test or Examination</TranslatedText></Description><CodeListRef CodeListOID="CL.METHOD" /></ItemDef><ItemDef OID="IT.LB.LBLOBXFL" Name="LBLOBXFL" DataType="text" SASFieldName="LBLOBXFL"><Description><TranslatedText xml:lang="en">Last Observation Before Exposure Flag</TranslatedText></Description><CodeListRef CodeListOID="CL.NY" /></ItemDef><ItemDef OID="IT.LB.LBFAST" Name="LBFAST" DataType="text" SASFieldName="LBFAST"><Description><TranslatedText xml:lang="en">Fasting Status</TranslatedText></Description><CodeListRef CodeListOID="CL.NY" /></ItemDef><ItemDef OID="IT.LB.VISITNUM" Name="VISITNUM" DataType="float" SASFieldName="VISITNUM"><Description><TranslatedText xml:lang="en">Visit Number</TranslatedText></Description></ItemDef><ItemDef OID="IT.LB.LBDTC" Name="LBDTC" DataType="text" SASFieldName="LBDTC"><Description><TranslatedText xml:lang="en">Date/Time of Specimen Collection</TranslatedText></Description></ItemDef><ItemDef OID="IT.LB.LBORRES.HGB" Name="LBORRES" DataType="float" SASFieldName="LBORRES" SignificantDigits="4"><def:Origin Type="Collected" Source="Vendor" /></ItemDef><ItemDef OID="IT.LB.LBORRES.HCT" Name="LBORRES" DataType="float" SASFieldName="LBORRES" SignificantDigits="4"><def:Origin Type="Collected" Source="Vendor" /></ItemDef><ItemDef OID="IT.LB.LBORRES.RBC" Name="LBORRES" DataType="float" SASFieldName="LBORRES" SignificantDigits="4"><def:Origin Type="Collected" Source="Vendor" /></ItemDef><ItemDef OID="IT.LB.LBORRES.MCH" Name="LBORRES" DataType="float" SASFieldName="LBORRES" SignificantDigits="4"><def:Origin Type="Collected" Source="Vendor" /></ItemDef><ItemDef OID="IT.LB.LBORRES.MCHC" Name="LBORRES" DataType="float" SASFieldName="LBORRES" SignificantDigits="4"><def:Origin Type="Collected" Source="Vendor" /></ItemDef><ItemDef OID="IT.LB.LBORRES.MCV" Name="LBORRES" DataType="float" SASFieldName="LBORRES" SignificantDigits="4"><def:Origin Type="Collected" Source="Vendor" /></ItemDef><ItemDef OID="IT.LB.LBORRES.WBC" Name="LBORRES" DataType="float" SASFieldName="LBORRES" SignificantDigits="4"><def:Origin Type="Collected" Source="Vendor" /></ItemDef><ItemDef OID="IT.LB.LBORRES.NEUTSG" Name="LBORRES" DataType="float" SASFieldName="LBORRES" SignificantDigits="4"><def:Origin Type="Collected" Source="Vendor" /></ItemDef><ItemDef OID="IT.LB.LBORRES.NEUTB" Name="LBORRES" DataType="float" SASFieldName="LBORRES" SignificantDigits="4"><def:Origin Type="Collected" Source="Vendor" /></ItemDef><ItemDef OID="IT.LB.LBORRES.NEUT" Name="LBORRES" DataType="float" SASFieldName="LBORRES" SignificantDigits="4"><def:Origin Type="Collected" Source="Vendor" /></ItemDef><ItemDef OID="IT.LB.LBORRES.MONO" Name="LBORRES" DataType="float" SASFieldName="LBORRES" SignificantDigits="4"><def:Origin Type="Collected" Source="Vendor" /></ItemDef><ItemDef OID="IT.LB.LBORRES.EOS" Name="LBORRES" DataType="float" SASFieldName="LBORRES" SignificantDigits="4"><def:Origin Type="Collected" Source="Vendor" /></ItemDef><ItemDef OID="IT.LB.LBORRES.BASO" Name="LBORRES" DataType="float" SASFieldName="LBORRES" SignificantDigits="4"><def:Origin Type="Collected" Source="Vendor" /></ItemDef><ItemDef OID="IT.LB.LBORRES.PLAT" Name="LBORRES" DataType="float" SASFieldName="LBORRES" SignificantDigits="4"><def:Origin Type="Collected" Source="Vendor" /></ItemDef><ItemDef OID="IT.LB.LBORRES.MICROCY" Name="LBORRES" DataType="text" SASFieldName="LBORRES"><def:Origin Type="Collected" Source="Vendor" /></ItemDef><ItemDef OID="IT.LB.LBORRES.MACROCY" Name="LBORRES" DataType="text" SASFieldName="LBORRES"><def:Origin Type="Collected" Source="Vendor" /></ItemDef><ItemDef OID="IT.LB.LBORRES.ANISO" Name="LBORRES" DataType="text" SASFieldName="LBORRES"><def:Origin Type="Collected" Source="Vendor" /></ItemDef><ItemDef OID="IT.LB.LBORRES.POIKILO" Name="LBORRES" DataType="text" SASFieldName="LBORRES"><def:Origin Type="Collected" Source="Vendor" /></ItemDef><ItemDef OID="IT.LB.LBORRES.POLYCHR" Name="LBORRES" DataType="text" SASFieldName="LBORRES"><def:Origin Type="Collected" Source="Vendor" /></ItemDef><ItemDef OID="IT.LB.LBORRES.ALT" Name="LBORRES" DataType="float" SASFieldName="LBORRES" SignificantDigits="4"><def:Origin Type="Collected" Source="Vendor" /></ItemDef><ItemDef OID="IT.LB.LBORRES.ALB" Name="LBORRES" DataType="text" SASFieldName="LBORRES" SignificantDigits="4"><def:Origin Type="Collected" Source="Vendor" /></ItemDef><ItemDef OID="IT.LB.LBORRES.ALP" Name="LBORRES" DataType="float" SASFieldName="LBORRES" SignificantDigits="4"><def:Origin Type="Collected" Source="Vendor" /></ItemDef><ItemDef OID="IT.LB.LBORRES.AST" Name="LBORRES" DataType="float" SASFieldName="LBORRES" SignificantDigits="4"><def:Origin Type="Collected" Source="Vendor" /></ItemDef><ItemDef OID="IT.LB.LBORRES.CREAT" Name="LBORRES" DataType="float" SASFieldName="LBORRES" SignificantDigits="4"><def:Origin Type="Collected" Source="Vendor" /></ItemDef><ItemDef OID="IT.LB.LBORRES.K" Name="LBORRES" DataType="float" SASFieldName="LBORRES" SignificantDigits="4"><def:Origin Type="Collected" Source="Vendor" /></ItemDef><ItemDef OID="IT.LB.LBORRES.SODIUM" Name="LBORRES" DataType="float" SASFieldName="LBORRES" SignificantDigits="4"><def:Origin Type="Collected" Source="Vendor" /></ItemDef><ItemDef OID="IT.LB.LBORRES.UREAN" Name="LBORRES" DataType="float" SASFieldName="LBORRES" SignificantDigits="4"><def:Origin Type="Collected" Source="Vendor" /></ItemDef><ItemDef OID="IT.LB.LBORRES.BICARB" Name="LBORRES" DataType="float" SASFieldName="LBORRES" SignificantDigits="4"><def:Origin Type="Collected" Source="Vendor" /></ItemDef><ItemDef OID="IT.LB.LBORRES.CL" Name="LBORRES" DataType="float" SASFieldName="LBORRES" SignificantDigits="4"><def:Origin Type="Collected" Source="Vendor" /></ItemDef><ItemDef OID="IT.LB.LBORRES.BILI" Name="LBORRES" DataType="text" SASFieldName="LBORRES" SignificantDigits="4"><def:Origin Type="Collected" Source="Vendor" /></ItemDef><ItemDef OID="IT.LB.LBORRES.GGT" Name="LBORRES" DataType="float" SASFieldName="LBORRES" SignificantDigits="4"><def:Origin Type="Collected" Source="Vendor" /></ItemDef><ItemDef OID="IT.LB.LBORRES.URATE" Name="LBORRES" DataType="float" SASFieldName="LBORRES" SignificantDigits="4"><def:Origin Type="Collected" Source="Vendor" /></ItemDef><ItemDef OID="IT.LB.LBORRES.PHOS" Name="LBORRES" DataType="float" SASFieldName="LBORRES" SignificantDigits="4"><def:Origin Type="Collected" Source="Vendor" /></ItemDef><ItemDef OID="IT.LB.LBORRES.CA" Name="LBORRES" DataType="float" SASFieldName="LBORRES" SignificantDigits="4"><def:Origin Type="Collected" Source="Vendor" /></ItemDef><ItemDef OID="IT.LB.LBORRES.GLUC" Name="LBORRES" DataType="text" SASFieldName="LBORRES" /><ItemDef OID="IT.LB.LBORRES.PROT" Name="LBORRES" DataType="text" SASFieldName="LBORRES" SignificantDigits="4"><def:Origin Type="Collected" Source="Vendor" /></ItemDef><ItemDef OID="IT.LB.LBORRES.CHOL" Name="LBORRES" DataType="float" SASFieldName="LBORRES" SignificantDigits="4"><def:Origin Type="Collected" Source="Vendor" /></ItemDef><ItemDef OID="IT.LB.LBORRES.T3UP" Name="LBORRES" DataType="float" SASFieldName="LBORRES" SignificantDigits="4"><def:Origin Type="Collected" Source="Vendor" /></ItemDef><ItemDef OID="IT.LB.LBORRES.T3" Name="LBORRES" DataType="float" SASFieldName="LBORRES" SignificantDigits="4"><def:Origin Type="Collected" Source="Vendor" /></ItemDef><ItemDef OID="IT.LB.LBORRES.T4FR" Name="LBORRES" DataType="float" SASFieldName="LBORRES" SignificantDigits="4"><def:Origin Type="Collected" Source="Vendor" /></ItemDef><ItemDef OID="IT.LB.LBORRES.T4FRIDX" Name="LBORRES" DataType="float" SASFieldName="LBORRES" SignificantDigits="4"><def:Origin Type="Collected" Source="Vendor" /></ItemDef><ItemDef OID="IT.LB.LBORRES.TSH" Name="LBORRES" DataType="float" SASFieldName="LBORRES" SignificantDigits="4"><def:Origin Type="Collected" Source="Vendor" /></ItemDef><ItemDef OID="IT.LB.LBORRES.VITB9" Name="LBORRES" DataType="float" SASFieldName="LBORRES" SignificantDigits="4"><def:Origin Type="Collected" Source="Vendor" /></ItemDef><ItemDef OID="IT.LB.LBORRES.VITB12" Name="LBORRES" DataType="float" SASFieldName="LBORRES" SignificantDigits="4"><def:Origin Type="Collected" Source="Vendor" /></ItemDef><ItemDef OID="IT.LB.LBORRES.COLOR" Name="LBORRES" DataType="text" SASFieldName="LBORRES"><def:Origin Type="Collected" Source="Vendor" /></ItemDef><ItemDef OID="IT.LB.LBORRES.SPGRAV" Name="LBORRES" DataType="float" SASFieldName="LBORRES" SignificantDigits="4"><def:Origin Type="Collected" Source="Vendor" /></ItemDef><ItemDef OID="IT.LB.LBORRES.KETONES" Name="LBORRES" DataType="text" SASFieldName="LBORRES" SignificantDigits="4"><def:Origin Type="Collected" Source="Vendor" /></ItemDef><ItemDef OID="IT.LB.LBORRES.UROBIL" Name="LBORRES" DataType="float" SASFieldName="LBORRES" SignificantDigits="4"><def:Origin Type="Collected" Source="Vendor" /></ItemDef><ItemDef OID="IT.LB.LBORRES.OCCBLD" Name="LBORRES" DataType="text" SASFieldName="LBORRES" SignificantDigits="4"><def:Origin Type="Collected" Source="Vendor" /></ItemDef><ItemDef OID="IT.LB.LBORRES.NITRITE" Name="LBORRES" DataType="text" SASFieldName="LBORRES" SignificantDigits="4"><def:Origin Type="Collected" Source="Vendor" /></ItemDef><ItemDef OID="IT.LB.LBORRES.HBA1C" Name="LBORRES" DataType="float" SASFieldName="LBORRES" SignificantDigits="4"><def:Origin Type="Collected" Source="Vendor" /></ItemDef><ItemDef OID="IT.LB.LBORRES.HBA1CHGB" Name="LBORRES" DataType="float" SASFieldName="LBORRES" SignificantDigits="4"><def:Origin Type="Collected" Source="Vendor" /></ItemDef><ItemDef OID="IT.LB.LBORRESU.HGB" Name="LBORRESU" DataType="text" SASFieldName="LBORRESU" /><ItemDef OID="IT.LB.LBORRESU.HCT" Name="LBORRESU" DataType="text" SASFieldName="LBORRESU" /><ItemDef OID="IT.LB.LBORRESU.RBC" Name="LBORRESU" DataType="text" SASFieldName="LBORRESU" /><ItemDef OID="IT.LB.LBORRESU.MCH" Name="LBORRESU" DataType="text" SASFieldName="LBORRESU" /><ItemDef OID="IT.LB.LBORRESU.MCHC" Name="LBORRESU" DataType="text" SASFieldName="LBORRESU" /><ItemDef OID="IT.LB.LBORRESU.MCV" Name="LBORRESU" DataType="text" SASFieldName="LBORRESU" /><ItemDef OID="IT.LB.LBORRESU.WBC" Name="LBORRESU" DataType="text" SASFieldName="LBORRESU" /><ItemDef OID="IT.LB.LBORRESU.NEUTSG" Name="LBORRESU" DataType="text" SASFieldName="LBORRESU" /><ItemDef OID="IT.LB.LBORRESU.NEUTB" Name="LBORRESU" DataType="text" SASFieldName="LBORRESU" /><ItemDef OID="IT.LB.LBORRESU.NEUT" Name="LBORRESU" DataType="text" SASFieldName="LBORRESU" /><ItemDef OID="IT.LB.LBORRESU.MONO" Name="LBORRESU" DataType="text" SASFieldName="LBORRESU" /><ItemDef OID="IT.LB.LBORRESU.EOS" Name="LBORRESU" DataType="text" SASFieldName="LBORRESU" /><ItemDef OID="IT.LB.LBORRESU.BASO" Name="LBORRESU" DataType="text" SASFieldName="LBORRESU" /><ItemDef OID="IT.LB.LBORRESU.PLAT" Name="LBORRESU" DataType="text" SASFieldName="LBORRESU" /><ItemDef OID="IT.LB.LBORRESU.ALT" Name="LBORRESU" DataType="text" SASFieldName="LBORRESU" /><ItemDef OID="IT.LB.LBORRESU.ALP" Name="LBORRESU" DataType="text" SASFieldName="LBORRESU" /><ItemDef OID="IT.LB.LBORRESU.AST" Name="LBORRESU" DataType="text" SASFieldName="LBORRESU" /><ItemDef OID="IT.LB.LBORRESU.CREAT" Name="LBORRESU" DataType="text" SASFieldName="LBORRESU" /><ItemDef OID="IT.LB.LBORRESU.K" Name="LBORRESU" DataType="text" SASFieldName="LBORRESU" /><ItemDef OID="IT.LB.LBORRESU.SODIUM" Name="LBORRESU" DataType="text" SASFieldName="LBORRESU" /><ItemDef OID="IT.LB.LBORRESU.UREAN" Name="LBORRESU" DataType="text" SASFieldName="LBORRESU" /><ItemDef OID="IT.LB.LBORRESU.BICARB" Name="LBORRESU" DataType="text" SASFieldName="LBORRESU" /><ItemDef OID="IT.LB.LBORRESU.CL" Name="LBORRESU" DataType="text" SASFieldName="LBORRESU" /><ItemDef OID="IT.LB.LBORRESU.GGT" Name="LBORRESU" DataType="text" SASFieldName="LBORRESU" /><ItemDef OID="IT.LB.LBORRESU.URATE" Name="LBORRESU" DataType="text" SASFieldName="LBORRESU" /><ItemDef OID="IT.LB.LBORRESU.PHOS" Name="LBORRESU" DataType="text" SASFieldName="LBORRESU" /><ItemDef OID="IT.LB.LBORRESU.CA" Name="LBORRESU" DataType="text" SASFieldName="LBORRESU" /><ItemDef OID="IT.LB.LBORRESU.CHOL" Name="LBORRESU" DataType="text" SASFieldName="LBORRESU" /><ItemDef OID="IT.LB.LBORRESU.T3UP" Name="LBORRESU" DataType="text" SASFieldName="LBORRESU" /><ItemDef OID="IT.LB.LBORRESU.T3" Name="LBORRESU" DataType="text" SASFieldName="LBORRESU" /><ItemDef OID="IT.LB.LBORRESU.T4FR" Name="LBORRESU" DataType="text" SASFieldName="LBORRESU" /><ItemDef OID="IT.LB.LBORRESU.T4FRIDX" Name="LBORRESU" DataType="text" SASFieldName="LBORRESU" /><ItemDef OID="IT.LB.LBORRESU.TSH" Name="LBORRESU" DataType="text" SASFieldName="LBORRESU" /><ItemDef OID="IT.LB.LBORRESU.VITB9" Name="LBORRESU" DataType="text" SASFieldName="LBORRESU" /><ItemDef OID="IT.LB.LBORRESU.VITB12" Name="LBORRESU" DataType="text" SASFieldName="LBORRESU" /><ItemDef OID="IT.LB.LBORRESU.UROBIL" Name="LBORRESU" DataType="text" SASFieldName="LBORRESU" /><ItemDef OID="IT.LB.LBORRESU.HBA1C" Name="LBORRESU" DataType="text" SASFieldName="LBORRESU" /><ItemDef OID="IT.LB.LBORRESU.HBA1CHGB" Name="LBORRESU" DataType="text" SASFieldName="LBORRESU" /><ItemDef OID="IT.MB.STUDYID" Name="STUDYID" DataType="text" SASFieldName="STUDYID"><Description><TranslatedText xml:lang="en">Study Identifier</TranslatedText></Description></ItemDef><ItemDef OID="IT.MB.DOMAIN" Name="DOMAIN" DataType="text" SASFieldName="DOMAIN"><Description><TranslatedText xml:lang="en">Domain Abbreviation</TranslatedText></Description></ItemDef><ItemDef OID="IT.MB.USUBJID" Name="USUBJID" DataType="text" SASFieldName="USUBJID"><Description><TranslatedText xml:lang="en">Unique Subject Identifier</TranslatedText></Description></ItemDef><ItemDef OID="IT.MB.MBSEQ" Name="MBSEQ" DataType="float" SASFieldName="MBSEQ"><Description><TranslatedText xml:lang="en">Sequence Number</TranslatedText></Description></ItemDef><ItemDef OID="IT.MB.MBTESTCD" Name="MBTESTCD" DataType="text" SASFieldName="MBTESTCD"><Description><TranslatedText xml:lang="en">Microbiology Test or Finding Short Name</TranslatedText></Description><CodeListRef CodeListOID="CL.MBTESTCD" /></ItemDef><ItemDef OID="IT.MB.MBTEST" Name="MBTEST" DataType="text" SASFieldName="MBTEST"><Description><TranslatedText xml:lang="en">Microbiology Test or Finding Name</TranslatedText></Description><CodeListRef CodeListOID="CL.MBTEST" /></ItemDef><ItemDef OID="IT.MB.MBTSTDTL" Name="MBTSTDTL" DataType="text" SASFieldName="MBTSTDTL"><Description><TranslatedText xml:lang="en">Measurement, Test or Examination Detail</TranslatedText></Description><CodeListRef CodeListOID="CL.MBFTSDTL" /></ItemDef><ItemDef OID="IT.MB.MBORRES" Name="MBORRES" DataType="text" SASFieldName="MBORRES"><Description><TranslatedText xml:lang="en">Result or Finding in Original Units</TranslatedText></Description></ItemDef><ItemDef OID="IT.MB.MBSTRESC" Name="MBSTRESC" DataType="text" SASFieldName="MBSTRESC"><Description><TranslatedText xml:lang="en">Result or Finding in Standard Format</TranslatedText></Description></ItemDef><ItemDef OID="IT.MB.MBSPEC" Name="MBSPEC" DataType="text" SASFieldName="MBSPEC"><Description><TranslatedText xml:lang="en">Specimen Material Type</TranslatedText></Description><CodeListRef CodeListOID="CL.SPECTYPE" /></ItemDef><ItemDef OID="IT.MB.MBMETHOD" Name="MBMETHOD" DataType="text" SASFieldName="MBMETHOD"><Description><TranslatedText xml:lang="en">Method of Test or Examination</TranslatedText></Description><CodeListRef CodeListOID="CL.METHOD" /></ItemDef><ItemDef OID="IT.MB.VISITNUM" Name="VISITNUM" DataType="float" SASFieldName="VISITNUM"><Description><TranslatedText xml:lang="en">Visit Number</TranslatedText></Description></ItemDef><ItemDef OID="IT.MB.MBDTC" Name="MBDTC" DataType="text" SASFieldName="MBDTC"><Description><TranslatedText xml:lang="en">Date/Time of Collection</TranslatedText></Description></ItemDef><ItemDef OID="IT.MB.MBORRES.TPLAB" Name="MBORRES" DataType="text" SASFieldName="MBORRES" /><ItemDef OID="IT.MB.MBORRES.TPADNA" Name="MBORRES" DataType="text" SASFieldName="MBORRES" /><ItemDef OID="IT.EC.STUDYID" Name="STUDYID" DataType="text" SASFieldName="STUDYID"><Description><TranslatedText xml:lang="en">Study Identifier</TranslatedText></Description></ItemDef><ItemDef OID="IT.EC.DOMAIN" Name="DOMAIN" DataType="text" SASFieldName="DOMAIN"><Description><TranslatedText xml:lang="en">Domain Abbreviation</TranslatedText></Description></ItemDef><ItemDef OID="IT.EC.USUBJID" Name="USUBJID" DataType="text" SASFieldName="USUBJID"><Description><TranslatedText xml:lang="en">Unique Subject Identifier</TranslatedText></Description></ItemDef><ItemDef OID="IT.EC.ECSEQ" Name="ECSEQ" DataType="float" SASFieldName="ECSEQ"><Description><TranslatedText xml:lang="en">Sequence Number</TranslatedText></Description></ItemDef><ItemDef OID="IT.EC.ECREFID" Name="ECREFID" DataType="text" SASFieldName="ECREFID"><Description><TranslatedText xml:lang="en">Reference ID</TranslatedText></Description></ItemDef><ItemDef OID="IT.EC.ECTRT" Name="ECTRT" DataType="text" SASFieldName="ECTRT"><Description><TranslatedText xml:lang="en">Name of Treatment</TranslatedText></Description></ItemDef><ItemDef OID="IT.EC.ECDOSE" Name="ECDOSE" DataType="float" SASFieldName="ECDOSE"><Description><TranslatedText xml:lang="en">Dose</TranslatedText></Description></ItemDef><ItemDef OID="IT.EC.ECDOSTXT" Name="ECDOSTXT" DataType="text" SASFieldName="ECDOSTXT"><Description><TranslatedText xml:lang="en">Dose Description</TranslatedText></Description></ItemDef><ItemDef OID="IT.EC.ECDOSU" Name="ECDOSU" DataType="text" SASFieldName="ECDOSU"><Description><TranslatedText xml:lang="en">Dose Units</TranslatedText></Description><CodeListRef CodeListOID="CL.UNIT" /></ItemDef><ItemDef OID="IT.EC.ECDOSFRM" Name="ECDOSFRM" DataType="text" SASFieldName="ECDOSFRM"><Description><TranslatedText xml:lang="en">Dose Form</TranslatedText></Description><CodeListRef CodeListOID="CL.FRM" /></ItemDef><ItemDef OID="IT.EC.ECDOSFRQ" Name="ECDOSFRQ" DataType="text" SASFieldName="ECDOSFRQ"><Description><TranslatedText xml:lang="en">Dosing Frequency per Interval</TranslatedText></Description><CodeListRef CodeListOID="CL.FREQ" /></ItemDef><ItemDef OID="IT.EC.ECDOSRGM" Name="ECDOSRGM" DataType="text" SASFieldName="ECDOSRGM"><Description><TranslatedText xml:lang="en">Intended Dose Regimen</TranslatedText></Description></ItemDef><ItemDef OID="IT.EC.ECROUTE" Name="ECROUTE" DataType="text" SASFieldName="ECROUTE"><Description><TranslatedText xml:lang="en">Route of Administration</TranslatedText></Description><CodeListRef CodeListOID="CL.ROUTE" /></ItemDef><ItemDef OID="IT.EC.ECLOC" Name="ECLOC" DataType="text" SASFieldName="ECLOC"><Description><TranslatedText xml:lang="en">Location of Dose Administration</TranslatedText></Description><CodeListRef CodeListOID="CL.LOC" /></ItemDef><ItemDef OID="IT.EC.ECLAT" Name="ECLAT" DataType="text" SASFieldName="ECLAT"><Description><TranslatedText xml:lang="en">Laterality</TranslatedText></Description><CodeListRef CodeListOID="CL.LAT" /></ItemDef><ItemDef OID="IT.EC.ECDIR" Name="ECDIR" DataType="text" SASFieldName="ECDIR"><Description><TranslatedText xml:lang="en">Directionality</TranslatedText></Description><CodeListRef CodeListOID="CL.DIR" /></ItemDef><ItemDef OID="IT.EC.ECSTDTC" Name="ECSTDTC" DataType="text" SASFieldName="ECSTDTC"><Description><TranslatedText xml:lang="en">Start Date/Time of Treatment</TranslatedText></Description></ItemDef><ItemDef OID="IT.EC.ECENDTC" Name="ECENDTC" DataType="text" SASFieldName="ECENDTC"><Description><TranslatedText xml:lang="en">End Date/Time of Treatment</TranslatedText></Description></ItemDef><ItemDef OID="IT.AE.STUDYID" Name="STUDYID" DataType="text" SASFieldName="STUDYID"><Description><TranslatedText xml:lang="en">Study Identifier</TranslatedText></Description></ItemDef><ItemDef OID="IT.AE.DOMAIN" Name="DOMAIN" DataType="text" SASFieldName="DOMAIN"><Description><TranslatedText xml:lang="en">Domain Abbreviation</TranslatedText></Description></ItemDef><ItemDef OID="IT.AE.USUBJID" Name="USUBJID" DataType="text" SASFieldName="USUBJID"><Description><TranslatedText xml:lang="en">Unique Subject Identifier</TranslatedText></Description></ItemDef><ItemDef OID="IT.AE.AESEQ" Name="AESEQ" DataType="float" SASFieldName="AESEQ"><Description><TranslatedText xml:lang="en">Sequence Number</TranslatedText></Description></ItemDef><ItemDef OID="IT.AE.AETERM" Name="AETERM" DataType="text" SASFieldName="AETERM"><Description><TranslatedText xml:lang="en">Reported Term for the Adverse Event</TranslatedText></Description></ItemDef><ItemDef OID="IT.AE.AELLT" Name="AELLT" DataType="text" SASFieldName="AELLT"><Description><TranslatedText xml:lang="en">Lowest Level Term</TranslatedText></Description></ItemDef><ItemDef OID="IT.AE.AELLTCD" Name="AELLTCD" DataType="float" SASFieldName="AELLTCD"><Description><TranslatedText xml:lang="en">Lowest Level Term Code</TranslatedText></Description></ItemDef><ItemDef OID="IT.AE.AEDECOD" Name="AEDECOD" DataType="text" SASFieldName="AEDECOD"><Description><TranslatedText xml:lang="en">Dictionary-Derived Term</TranslatedText></Description></ItemDef><ItemDef OID="IT.AE.AEPTCD" Name="AEPTCD" DataType="float" SASFieldName="AEPTCD"><Description><TranslatedText xml:lang="en">Preferred Term Code</TranslatedText></Description></ItemDef><ItemDef OID="IT.AE.AEHLT" Name="AEHLT" DataType="text" SASFieldName="AEHLT"><Description><TranslatedText xml:lang="en">High Level Term</TranslatedText></Description></ItemDef><ItemDef OID="IT.AE.AEHLTCD" Name="AEHLTCD" DataType="float" SASFieldName="AEHLTCD"><Description><TranslatedText xml:lang="en">High Level Term Code</TranslatedText></Description></ItemDef><ItemDef OID="IT.AE.AEHLGT" Name="AEHLGT" DataType="text" SASFieldName="AEHLGT"><Description><TranslatedText xml:lang="en">High Level Group Term</TranslatedText></Description></ItemDef><ItemDef OID="IT.AE.AEHLGTCD" Name="AEHLGTCD" DataType="float" SASFieldName="AEHLGTCD"><Description><TranslatedText xml:lang="en">High Level Group Term Code</TranslatedText></Description></ItemDef><ItemDef OID="IT.AE.AECAT" Name="AECAT" DataType="text" SASFieldName="AECAT"><Description><TranslatedText xml:lang="en">Category for Adverse Event</TranslatedText></Description></ItemDef><ItemDef OID="IT.AE.AESCAT" Name="AESCAT" DataType="text" SASFieldName="AESCAT"><Description><TranslatedText xml:lang="en">Subcategory for Adverse Event</TranslatedText></Description></ItemDef><ItemDef OID="IT.AE.AEPRESP" Name="AEPRESP" DataType="text" SASFieldName="AEPRESP"><Description><TranslatedText xml:lang="en">Pre-Specified Adverse Event</TranslatedText></Description><CodeListRef CodeListOID="CL.NY" /></ItemDef><ItemDef OID="IT.AE.AEBODSYS" Name="AEBODSYS" DataType="text" SASFieldName="AEBODSYS"><Description><TranslatedText xml:lang="en">Body System or Organ Class</TranslatedText></Description></ItemDef><ItemDef OID="IT.AE.AEBDSYCD" Name="AEBDSYCD" DataType="float" SASFieldName="AEBDSYCD"><Description><TranslatedText xml:lang="en">Body System or Organ Class Code</TranslatedText></Description></ItemDef><ItemDef OID="IT.AE.AESOC" Name="AESOC" DataType="text" SASFieldName="AESOC"><Description><TranslatedText xml:lang="en">Primary System Organ Class</TranslatedText></Description></ItemDef><ItemDef OID="IT.AE.AESOCCD" Name="AESOCCD" DataType="float" SASFieldName="AESOCCD"><Description><TranslatedText xml:lang="en">Primary System Organ Class Code</TranslatedText></Description></ItemDef><ItemDef OID="IT.AE.AELOC" Name="AELOC" DataType="text" SASFieldName="AELOC"><Description><TranslatedText xml:lang="en">Location of Event</TranslatedText></Description><CodeListRef CodeListOID="CL.LOC" /></ItemDef><ItemDef OID="IT.AE.AESEV" Name="AESEV" DataType="text" SASFieldName="AESEV"><Description><TranslatedText xml:lang="en">Severity/Intensity</TranslatedText></Description><CodeListRef CodeListOID="CL.AESEV" /></ItemDef><ItemDef OID="IT.AE.AESER" Name="AESER" DataType="text" SASFieldName="AESER"><Description><TranslatedText xml:lang="en">Serious Event</TranslatedText></Description><CodeListRef CodeListOID="CL.NY" /></ItemDef><ItemDef OID="IT.AE.AEACN" Name="AEACN" DataType="text" SASFieldName="AEACN"><Description><TranslatedText xml:lang="en">Action Taken with Study Treatment</TranslatedText></Description><CodeListRef CodeListOID="CL.ACN" /></ItemDef><ItemDef OID="IT.AE.AEACNOTH" Name="AEACNOTH" DataType="text" SASFieldName="AEACNOTH"><Description><TranslatedText xml:lang="en">Other Action Taken</TranslatedText></Description></ItemDef><ItemDef OID="IT.AE.AEREL" Name="AEREL" DataType="text" SASFieldName="AEREL"><Description><TranslatedText xml:lang="en">Causality</TranslatedText></Description></ItemDef><ItemDef OID="IT.AE.AERELNST" Name="AERELNST" DataType="text" SASFieldName="AERELNST"><Description><TranslatedText xml:lang="en">Relationship to Non-Study Treatment</TranslatedText></Description></ItemDef><ItemDef OID="IT.AE.AEPATT" Name="AEPATT" DataType="text" SASFieldName="AEPATT"><Description><TranslatedText xml:lang="en">Pattern of Adverse Event</TranslatedText></Description></ItemDef><ItemDef OID="IT.AE.AEOUT" Name="AEOUT" DataType="text" SASFieldName="AEOUT"><Description><TranslatedText xml:lang="en">Outcome of Adverse Event</TranslatedText></Description><CodeListRef CodeListOID="CL.OUT" /></ItemDef><ItemDef OID="IT.AE.AESCAN" Name="AESCAN" DataType="text" SASFieldName="AESCAN"><Description><TranslatedText xml:lang="en">Involves Cancer</TranslatedText></Description><CodeListRef CodeListOID="CL.NY" /></ItemDef><ItemDef OID="IT.AE.AESCONG" Name="AESCONG" DataType="text" SASFieldName="AESCONG"><Description><TranslatedText xml:lang="en">Congenital Anomaly or Birth Defect</TranslatedText></Description><CodeListRef CodeListOID="CL.NY" /></ItemDef><ItemDef OID="IT.AE.AESDISAB" Name="AESDISAB" DataType="text" SASFieldName="AESDISAB"><Description><TranslatedText xml:lang="en">Persist or Signif Disability/Incapacity</TranslatedText></Description><CodeListRef CodeListOID="CL.NY" /></ItemDef><ItemDef OID="IT.AE.AESDTH" Name="AESDTH" DataType="text" SASFieldName="AESDTH"><Description><TranslatedText xml:lang="en">Results in Death</TranslatedText></Description><CodeListRef CodeListOID="CL.NY" /></ItemDef><ItemDef OID="IT.AE.AESHOSP" Name="AESHOSP" DataType="text" SASFieldName="AESHOSP"><Description><TranslatedText xml:lang="en">Requires or Prolongs Hospitalization</TranslatedText></Description><CodeListRef CodeListOID="CL.NY" /></ItemDef><ItemDef OID="IT.AE.AESLIFE" Name="AESLIFE" DataType="text" SASFieldName="AESLIFE"><Description><TranslatedText xml:lang="en">Is Life Threatening</TranslatedText></Description><CodeListRef CodeListOID="CL.NY" /></ItemDef><ItemDef OID="IT.AE.AESOD" Name="AESOD" DataType="text" SASFieldName="AESOD"><Description><TranslatedText xml:lang="en">Occurred with Overdose</TranslatedText></Description><CodeListRef CodeListOID="CL.NY" /></ItemDef><ItemDef OID="IT.AE.AESMIE" Name="AESMIE" DataType="text" SASFieldName="AESMIE"><Description><TranslatedText xml:lang="en">Other Medically Important Serious Event</TranslatedText></Description><CodeListRef CodeListOID="CL.NY" /></ItemDef><ItemDef OID="IT.AE.AECONTRT" Name="AECONTRT" DataType="text" SASFieldName="AECONTRT"><Description><TranslatedText xml:lang="en">Concomitant or Additional Trtmnt Given</TranslatedText></Description><CodeListRef CodeListOID="CL.NY" /></ItemDef><ItemDef OID="IT.AE.AETOXGR" Name="AETOXGR" DataType="text" SASFieldName="AETOXGR"><Description><TranslatedText xml:lang="en">Standard Toxicity Grade</TranslatedText></Description></ItemDef><ItemDef OID="IT.AE.AESTDTC" Name="AESTDTC" DataType="text" SASFieldName="AESTDTC"><Description><TranslatedText xml:lang="en">Start Date/Time of Adverse Event</TranslatedText></Description></ItemDef><ItemDef OID="IT.AE.AEENDTC" Name="AEENDTC" DataType="text" SASFieldName="AEENDTC"><Description><TranslatedText xml:lang="en">End Date/Time of Adverse Event</TranslatedText></Description></ItemDef><ItemDef OID="IT.AE.AEENRF" Name="AEENRF" DataType="text" SASFieldName="AEENRF"><Description><TranslatedText xml:lang="en">End Relative to Reference Period</TranslatedText></Description><CodeListRef CodeListOID="CL.STENRF" /></ItemDef><ItemDef OID="IT.AE.AEENRTPT" Name="AEENRTPT" DataType="text" SASFieldName="AEENRTPT"><Description><TranslatedText xml:lang="en">End Relative to Reference Time Point</TranslatedText></Description><CodeListRef CodeListOID="CL.STENRF" /></ItemDef><ItemDef OID="IT.AE.AEENTPT" Name="AEENTPT" DataType="text" SASFieldName="AEENTPT"><Description><TranslatedText xml:lang="en">End Reference Time Point</TranslatedText></Description></ItemDef><ItemDef OID="IT.IE.STUDYID" Name="STUDYID" DataType="text" SASFieldName="STUDYID"><Description><TranslatedText xml:lang="en">Study Identifier</TranslatedText></Description></ItemDef><ItemDef OID="IT.IE.DOMAIN" Name="DOMAIN" DataType="text" SASFieldName="DOMAIN"><Description><TranslatedText xml:lang="en">Domain Abbreviation</TranslatedText></Description></ItemDef><ItemDef OID="IT.IE.USUBJID" Name="USUBJID" DataType="text" SASFieldName="USUBJID"><Description><TranslatedText xml:lang="en">Unique Subject Identifier</TranslatedText></Description></ItemDef><ItemDef OID="IT.IE.IESEQ" Name="IESEQ" DataType="float" SASFieldName="IESEQ"><Description><TranslatedText xml:lang="en">Sequence Number</TranslatedText></Description></ItemDef><ItemDef OID="IT.IE.IETESTCD" Name="IETESTCD" DataType="text" SASFieldName="IETESTCD"><Description><TranslatedText xml:lang="en">Inclusion/Exclusion Criterion Short Name</TranslatedText></Description><CodeListRef CodeListOID="CL.IETESTCD" /></ItemDef><ItemDef OID="IT.IE.IETEST" Name="IETEST" DataType="text" SASFieldName="IETEST"><Description><TranslatedText xml:lang="en">Inclusion/Exclusion Criterion</TranslatedText></Description><CodeListRef CodeListOID="CL.IETEST" /></ItemDef><ItemDef OID="IT.IE.IECAT" Name="IECAT" DataType="text" SASFieldName="IECAT"><Description><TranslatedText xml:lang="en">Inclusion/Exclusion Category</TranslatedText></Description><CodeListRef CodeListOID="CL.IECAT" /></ItemDef><ItemDef OID="IT.IE.IEORRES" Name="IEORRES" DataType="text" SASFieldName="IEORRES"><Description><TranslatedText xml:lang="en">I/E Criterion Original Result</TranslatedText></Description><CodeListRef CodeListOID="CL.NY" /></ItemDef><ItemDef OID="IT.IE.IESTRESC" Name="IESTRESC" DataType="text" SASFieldName="IESTRESC"><Description><TranslatedText xml:lang="en">I/E Criterion Result in Std Format</TranslatedText></Description><CodeListRef CodeListOID="CL.NY" /></ItemDef><ItemDef OID="IT.IE.IEORRES.IN01" Name="IEORRES" DataType="text" SASFieldName="IEORRES"><def:Origin Type="Collected" Source="Investigator" /></ItemDef><ItemDef OID="IT.IE.IEORRES.IN02" Name="IEORRES" DataType="text" SASFieldName="IEORRES"><def:Origin Type="Collected" Source="Investigator" /></ItemDef><ItemDef OID="IT.IE.IEORRES.IN03" Name="IEORRES" DataType="text" SASFieldName="IEORRES"><def:Origin Type="Collected" Source="Investigator" /></ItemDef><ItemDef OID="IT.IE.IEORRES.IN04" Name="IEORRES" DataType="text" SASFieldName="IEORRES"><def:Origin Type="Collected" Source="Investigator" /></ItemDef><ItemDef OID="IT.IE.IEORRES.IN05" Name="IEORRES" DataType="text" SASFieldName="IEORRES"><def:Origin Type="Collected" Source="Investigator" /></ItemDef><ItemDef OID="IT.IE.IEORRES.IN06" Name="IEORRES" DataType="text" SASFieldName="IEORRES"><def:Origin Type="Collected" Source="Investigator" /></ItemDef><ItemDef OID="IT.IE.IEORRES.IN07" Name="IEORRES" DataType="text" SASFieldName="IEORRES"><def:Origin Type="Collected" Source="Investigator" /></ItemDef><ItemDef OID="IT.IE.IEORRES.IN08" Name="IEORRES" DataType="text" SASFieldName="IEORRES"><def:Origin Type="Collected" Source="Investigator" /></ItemDef><ItemDef OID="IT.IE.IEORRES.EX01" Name="IEORRES" DataType="text" SASFieldName="IEORRES"><def:Origin Type="Collected" Source="Investigator" /></ItemDef><ItemDef OID="IT.IE.IEORRES.EX02" Name="IEORRES" DataType="text" SASFieldName="IEORRES"><def:Origin Type="Collected" Source="Investigator" /></ItemDef><ItemDef OID="IT.IE.IEORRES.EX03" Name="IEORRES" DataType="text" SASFieldName="IEORRES"><def:Origin Type="Collected" Source="Investigator" /></ItemDef><ItemDef OID="IT.IE.IEORRES.EX04" Name="IEORRES" DataType="text" SASFieldName="IEORRES"><def:Origin Type="Collected" Source="Investigator" /></ItemDef><ItemDef OID="IT.IE.IEORRES.EX05" Name="IEORRES" DataType="text" SASFieldName="IEORRES"><def:Origin Type="Collected" Source="Investigator" /></ItemDef><ItemDef OID="IT.IE.IEORRES.EX06" Name="IEORRES" DataType="text" SASFieldName="IEORRES"><def:Origin Type="Collected" Source="Investigator" /></ItemDef><ItemDef OID="IT.IE.IEORRES.EX07" Name="IEORRES" DataType="text" SASFieldName="IEORRES"><def:Origin Type="Collected" Source="Investigator" /></ItemDef><ItemDef OID="IT.IE.IEORRES.EX08" Name="IEORRES" DataType="text" SASFieldName="IEORRES"><def:Origin Type="Collected" Source="Investigator" /></ItemDef><ItemDef OID="IT.IE.IEORRES.EX09" Name="IEORRES" DataType="text" SASFieldName="IEORRES"><def:Origin Type="Collected" Source="Investigator" /></ItemDef><ItemDef OID="IT.IE.IEORRES.EX10" Name="IEORRES" DataType="text" SASFieldName="IEORRES"><def:Origin Type="Collected" Source="Investigator" /></ItemDef><ItemDef OID="IT.IE.IEORRES.EX11" Name="IEORRES" DataType="text" SASFieldName="IEORRES"><def:Origin Type="Collected" Source="Investigator" /></ItemDef><ItemDef OID="IT.IE.IEORRES.EX12" Name="IEORRES" DataType="text" SASFieldName="IEORRES"><def:Origin Type="Collected" Source="Investigator" /></ItemDef><ItemDef OID="IT.IE.IEORRES.EX13" Name="IEORRES" DataType="text" SASFieldName="IEORRES"><def:Origin Type="Collected" Source="Investigator" /></ItemDef><ItemDef OID="IT.IE.IEORRES.EX14" Name="IEORRES" DataType="text" SASFieldName="IEORRES"><def:Origin Type="Collected" Source="Investigator" /></ItemDef><ItemDef OID="IT.IE.IEORRES.EX15" Name="IEORRES" DataType="text" SASFieldName="IEORRES"><def:Origin Type="Collected" Source="Investigator" /></ItemDef><ItemDef OID="IT.IE.IEORRES.EX16" Name="IEORRES" DataType="text" SASFieldName="IEORRES"><def:Origin Type="Collected" Source="Investigator" /></ItemDef><ItemDef OID="IT.IE.IEORRES.EX17" Name="IEORRES" DataType="text" SASFieldName="IEORRES"><def:Origin Type="Collected" Source="Investigator" /></ItemDef><ItemDef OID="IT.IE.IEORRES.EX18" Name="IEORRES" DataType="text" SASFieldName="IEORRES"><def:Origin Type="Collected" Source="Investigator" /></ItemDef><ItemDef OID="IT.IE.IEORRES.EX19" Name="IEORRES" DataType="text" SASFieldName="IEORRES"><def:Origin Type="Collected" Source="Investigator" /></ItemDef><ItemDef OID="IT.IE.IEORRES.EX20" Name="IEORRES" DataType="text" SASFieldName="IEORRES"><def:Origin Type="Collected" Source="Investigator" /></ItemDef><ItemDef OID="IT.IE.IEORRES.EX21" Name="IEORRES" DataType="text" SASFieldName="IEORRES"><def:Origin Type="Collected" Source="Investigator" /></ItemDef><ItemDef OID="IT.IE.IEORRES.EX22" Name="IEORRES" DataType="text" SASFieldName="IEORRES"><def:Origin Type="Collected" Source="Investigator" /></ItemDef><ItemDef OID="IT.IE.IEORRES.EX23" Name="IEORRES" DataType="text" SASFieldName="IEORRES"><def:Origin Type="Collected" Source="Investigator" /></ItemDef><ItemDef OID="IT.SE.STUDYID" Name="STUDYID" DataType="text" SASFieldName="STUDYID"><Description><TranslatedText xml:lang="en">Study Identifier</TranslatedText></Description></ItemDef><ItemDef OID="IT.SE.DOMAIN" Name="DOMAIN" DataType="text" SASFieldName="DOMAIN"><Description><TranslatedText xml:lang="en">Domain Abbreviation</TranslatedText></Description></ItemDef><ItemDef OID="IT.SE.USUBJID" Name="USUBJID" DataType="text" SASFieldName="USUBJID"><Description><TranslatedText xml:lang="en">Unique Subject Identifier</TranslatedText></Description></ItemDef><ItemDef OID="IT.SE.SESEQ" Name="SESEQ" DataType="float" SASFieldName="SESEQ"><Description><TranslatedText xml:lang="en">Sequence Number</TranslatedText></Description></ItemDef><ItemDef OID="IT.SE.ETCD" Name="ETCD" DataType="text" SASFieldName="ETCD"><Description><TranslatedText xml:lang="en">Element Code</TranslatedText></Description><CodeListRef CodeListOID="CL.ETCD" /></ItemDef><ItemDef OID="IT.SE.ELEMENT" Name="ELEMENT" DataType="text" SASFieldName="ELEMENT"><Description><TranslatedText xml:lang="en">Description of Element</TranslatedText></Description><CodeListRef CodeListOID="CL.ELEMENT" /></ItemDef><ItemDef OID="IT.SE.SESTDTC" Name="SESTDTC" DataType="text" SASFieldName="SESTDTC"><Description><TranslatedText xml:lang="en">Start Date/Time of Element</TranslatedText></Description></ItemDef><ItemDef OID="IT.SE.SEENDTC" Name="SEENDTC" DataType="text" SASFieldName="SEENDTC"><Description><TranslatedText xml:lang="en">End Date/Time of Element</TranslatedText></Description></ItemDef><ItemDef OID="IT.SE.SEENDTC.EL1" Name="SEENDTC" DataType="datetime" SASFieldName="SEENDTC"><def:Origin Type="Collected" Source="Investigator" /></ItemDef><ItemDef OID="IT.SE.SEENDTC.EL2" Name="SEENDTC" DataType="datetime" SASFieldName="SEENDTC"><def:Origin Type="Collected" Source="Investigator" /></ItemDef><ItemDef OID="IT.SE.SEENDTC.EL7" Name="SEENDTC" DataType="datetime" SASFieldName="SEENDTC"><def:Origin Type="Collected" Source="Investigator" /></ItemDef><ItemDef OID="IT.SE.SEENDTC.EL3" Name="SEENDTC" DataType="datetime" SASFieldName="SEENDTC"><def:Origin Type="Collected" Source="Investigator" /></ItemDef><ItemDef OID="IT.SE.SEENDTC.EL4" Name="SEENDTC" DataType="datetime" SASFieldName="SEENDTC"><def:Origin Type="Collected" Source="Investigator" /></ItemDef><ItemDef OID="IT.SE.SEENDTC.EL5" Name="SEENDTC" DataType="datetime" SASFieldName="SEENDTC"><def:Origin Type="Collected" Source="Investigator" /></ItemDef><ItemDef OID="IT.SE.SEENDTC.EL6" Name="SEENDTC" DataType="datetime" SASFieldName="SEENDTC"><def:Origin Type="Collected" Source="Investigator" /></ItemDef><ItemDef OID="IT.SE.SESTDTC.EL1" Name="SESTDTC" DataType="datetime" SASFieldName="SESTDTC"><def:Origin Type="Collected" Source="Investigator" /></ItemDef><ItemDef OID="IT.SE.SESTDTC.EL2" Name="SESTDTC" DataType="datetime" SASFieldName="SESTDTC"><def:Origin Type="Collected" Source="Investigator" /></ItemDef><ItemDef OID="IT.SE.SESTDTC.EL7" Name="SESTDTC" DataType="datetime" SASFieldName="SESTDTC"><def:Origin Type="Collected" Source="Investigator" /></ItemDef><ItemDef OID="IT.SE.SESTDTC.EL3" Name="SESTDTC" DataType="datetime" SASFieldName="SESTDTC"><def:Origin Type="Collected" Source="Investigator" /></ItemDef><ItemDef OID="IT.SE.SESTDTC.EL4" Name="SESTDTC" DataType="datetime" SASFieldName="SESTDTC"><def:Origin Type="Collected" Source="Investigator" /></ItemDef><ItemDef OID="IT.SE.SESTDTC.EL5" Name="SESTDTC" DataType="datetime" SASFieldName="SESTDTC"><def:Origin Type="Collected" Source="Investigator" /></ItemDef><ItemDef OID="IT.SE.SESTDTC.EL6" Name="SESTDTC" DataType="datetime" SASFieldName="SESTDTC"><def:Origin Type="Collected" Source="Investigator" /></ItemDef><CodeList OID="CL.IETEST" Name="Inclusion/Exclusion Test Name" DataType="text"><CodeListItem CodedValue="Age greater than 50"><Decode><TranslatedText xml:lang="en">Age greater than 50</TranslatedText></Decode></CodeListItem><CodeListItem CodedValue="Diagnosis of Alzheimer's"><Decode><TranslatedText xml:lang="en">Diagnosis of Alzheimer's</TranslatedText></Decode></CodeListItem><CodeListItem CodedValue="MMSE Score"><Decode><TranslatedText xml:lang="en">MMSE Score</TranslatedText></Decode></CodeListItem><CodeListItem CodedValue="Hachinski Ischemic Score"><Decode><TranslatedText xml:lang="en">Hachinski Ischemic Score</TranslatedText></Decode></CodeListItem><CodeListItem CodedValue="CNS imaging comptaible with Alzheimer's"><Decode><TranslatedText xml:lang="en">CNS imaging comptaible with Alzheimer's</TranslatedText></Decode></CodeListItem><CodeListItem CodedValue="Informed consent criteria"><Decode><TranslatedText xml:lang="en">Informed consent criteria</TranslatedText></Decode></CodeListItem><CodeListItem CodedValue="Geographic proximity criteria"><Decode><TranslatedText xml:lang="en">Geographic proximity criteria</TranslatedText></Decode></CodeListItem><CodeListItem CodedValue="Reliable caregiver criteria"><Decode><TranslatedText xml:lang="en">Reliable caregiver criteria</TranslatedText></Decode></CodeListItem><CodeListItem CodedValue="Previous study criteria"><Decode><TranslatedText xml:lang="en">Previous study criteria</TranslatedText></Decode></CodeListItem><CodeListItem CodedValue="Other Alzheimer's therapy criteria"><Decode><TranslatedText xml:lang="en">Other Alzheimer's therapy criteria</TranslatedText></Decode></CodeListItem><CodeListItem CodedValue="Serious illness criteria"><Decode><TranslatedText xml:lang="en">Serious illness criteria</TranslatedText></Decode></CodeListItem><CodeListItem CodedValue="Serious neurolocal conditions criteria"><Decode><TranslatedText xml:lang="en">Serious neurolocal conditions criteria</TranslatedText></Decode></CodeListItem><CodeListItem CodedValue="Depression criteria"><Decode><TranslatedText xml:lang="en">Depression criteria</TranslatedText></Decode></CodeListItem><CodeListItem CodedValue="Schizophrenia, Bipolar, Ethanol or psychoactive abuse criteria"><Decode><TranslatedText xml:lang="en">Schizophrenia, Bipolar, Ethanol or psychoactive abuse criteria</TranslatedText></Decode></CodeListItem><CodeListItem CodedValue="Syncope criteria"><Decode><TranslatedText xml:lang="en">Syncope criteria</TranslatedText></Decode></CodeListItem><CodeListItem CodedValue="ECG Criteria"><Decode><TranslatedText xml:lang="en">ECG Criteria</TranslatedText></Decode></CodeListItem><CodeListItem CodedValue="Cardiovascular criteria"><Decode><TranslatedText xml:lang="en">Cardiovascular criteria</TranslatedText></Decode></CodeListItem><CodeListItem CodedValue="Gastrointensinal criteria"><Decode><TranslatedText xml:lang="en">Gastrointensinal criteria</TranslatedText></Decode></CodeListItem><CodeListItem CodedValue="Endocrine criteria"><Decode><TranslatedText xml:lang="en">Endocrine criteria</TranslatedText></Decode></CodeListItem><CodeListItem CodedValue="Resporatory criteria"><Decode><TranslatedText xml:lang="en">Resporatory criteria</TranslatedText></Decode></CodeListItem><CodeListItem CodedValue="Genitourinary criteria"><Decode><TranslatedText xml:lang="en">Genitourinary criteria</TranslatedText></Decode></CodeListItem><CodeListItem CodedValue="Rheumatologic criteria"><Decode><TranslatedText xml:lang="en">Rheumatologic criteria</TranslatedText></Decode></CodeListItem><CodeListItem CodedValue="HIV criteria"><Decode><TranslatedText xml:lang="en">HIV criteria</TranslatedText></Decode></CodeListItem><CodeListItem CodedValue="Neurosyphilis, Meningitis,Encephalitis criteria"><Decode><TranslatedText xml:lang="en">Neurosyphilis, Meningitis,Encephalitis criteria</TranslatedText></Decode></CodeListItem><CodeListItem CodedValue="Malignant disease criteria"><Decode><TranslatedText xml:lang="en">Malignant disease criteria</TranslatedText></Decode></CodeListItem><CodeListItem CodedValue="Ability to participate in study criteria"><Decode><TranslatedText xml:lang="en">Ability to participate in study criteria</TranslatedText></Decode></CodeListItem><CodeListItem CodedValue="Laboratory values criteria"><Decode><TranslatedText xml:lang="en">Laboratory values criteria</TranslatedText></Decode></CodeListItem><CodeListItem CodedValue="Central laboratory values criteria"><Decode><TranslatedText xml:lang="en">Central laboratory values criteria</TranslatedText></Decode></CodeListItem><CodeListItem CodedValue="Syphilia criteria"><Decode><TranslatedText xml:lang="en">Syphilia criteria</TranslatedText></Decode></CodeListItem><CodeListItem CodedValue="Hemoglobin criteria"><Decode><TranslatedText xml:lang="en">Hemoglobin criteria</TranslatedText></Decode></CodeListItem><CodeListItem CodedValue="Medications Criteria"><Decode><TranslatedText xml:lang="en">Medications Criteria</TranslatedText></Decode></CodeListItem></CodeList><CodeList OID="CL.IETESTCD" Name="Inclusion/Exclusion Test Code" DataType="text"><CodeListItem CodedValue="IN01"><Decode><TranslatedText xml:lang="en">Age greater than 50</TranslatedText></Decode></CodeListItem><CodeListItem CodedValue="IN02"><Decode><TranslatedText xml:lang="en">Diagnosis of Alzheimer's</TranslatedText></Decode></CodeListItem><CodeListItem CodedValue="IN03"><Decode><TranslatedText xml:lang="en">MMSE Score</TranslatedText></Decode></CodeListItem><CodeListItem CodedValue="IN04"><Decode><TranslatedText xml:lang="en">Hachinski Ischemic Score</TranslatedText></Decode></CodeListItem><CodeListItem CodedValue="IN05"><Decode><TranslatedText xml:lang="en">CNS imaging comptaible with Alzheimer's</TranslatedText></Decode></CodeListItem><CodeListItem CodedValue="IN06"><Decode><TranslatedText xml:lang="en">Informed consent criteria</TranslatedText></Decode></CodeListItem><CodeListItem CodedValue="IN07"><Decode><TranslatedText xml:lang="en">Geographic proximity criteria</TranslatedText></Decode></CodeListItem><CodeListItem CodedValue="IN08"><Decode><TranslatedText xml:lang="en">Reliable caregiver criteria</TranslatedText></Decode></CodeListItem><CodeListItem CodedValue="EX01"><Decode><TranslatedText xml:lang="en">Previous study criteria</TranslatedText></Decode></CodeListItem><CodeListItem CodedValue="EX02"><Decode><TranslatedText xml:lang="en">Other Alzheimer's therapy criteria</TranslatedText></Decode></CodeListItem><CodeListItem CodedValue="EX03"><Decode><TranslatedText xml:lang="en">Serious illness criteria</TranslatedText></Decode></CodeListItem><CodeListItem CodedValue="EX04"><Decode><TranslatedText xml:lang="en">Serious neurolocal conditions criteria</TranslatedText></Decode></CodeListItem><CodeListItem CodedValue="EX05"><Decode><TranslatedText xml:lang="en">Depression criteria</TranslatedText></Decode></CodeListItem><CodeListItem CodedValue="EX06"><Decode><TranslatedText xml:lang="en">Schizophrenia, Bipolar, Ethanol or psychoactive abuse criteria</TranslatedText></Decode></CodeListItem><CodeListItem CodedValue="EX07"><Decode><TranslatedText xml:lang="en">Syncope criteria</TranslatedText></Decode></CodeListItem><CodeListItem CodedValue="EX08"><Decode><TranslatedText xml:lang="en">ECG Criteria</TranslatedText></Decode></CodeListItem><CodeListItem CodedValue="EX09"><Decode><TranslatedText xml:lang="en">Cardiovascular criteria</TranslatedText></Decode></CodeListItem><CodeListItem CodedValue="EX10"><Decode><TranslatedText xml:lang="en">Gastrointensinal criteria</TranslatedText></Decode></CodeListItem><CodeListItem CodedValue="EX11"><Decode><TranslatedText xml:lang="en">Endocrine criteria</TranslatedText></Decode></CodeListItem><CodeListItem CodedValue="EX12"><Decode><TranslatedText xml:lang="en">Resporatory criteria</TranslatedText></Decode></CodeListItem><CodeListItem CodedValue="EX13"><Decode><TranslatedText xml:lang="en">Genitourinary criteria</TranslatedText></Decode></CodeListItem><CodeListItem CodedValue="EX14"><Decode><TranslatedText xml:lang="en">Rheumatologic criteria</TranslatedText></Decode></CodeListItem><CodeListItem CodedValue="EX15"><Decode><TranslatedText xml:lang="en">HIV criteria</TranslatedText></Decode></CodeListItem><CodeListItem CodedValue="EX16"><Decode><TranslatedText xml:lang="en">Neurosyphilis, Meningitis,Encephalitis criteria</TranslatedText></Decode></CodeListItem><CodeListItem CodedValue="EX17"><Decode><TranslatedText xml:lang="en">Malignant disease criteria</TranslatedText></Decode></CodeListItem><CodeListItem CodedValue="EX18"><Decode><TranslatedText xml:lang="en">Ability to participate in study criteria</TranslatedText></Decode></CodeListItem><CodeListItem CodedValue="EX19"><Decode><TranslatedText xml:lang="en">Laboratory values criteria</TranslatedText></Decode></CodeListItem><CodeListItem CodedValue="EX20"><Decode><TranslatedText xml:lang="en">Central laboratory values criteria</TranslatedText></Decode></CodeListItem><CodeListItem CodedValue="EX21"><Decode><TranslatedText xml:lang="en">Syphilia criteria</TranslatedText></Decode></CodeListItem><CodeListItem CodedValue="EX22"><Decode><TranslatedText xml:lang="en">Hemoglobin criteria</TranslatedText></Decode></CodeListItem><CodeListItem CodedValue="EX23"><Decode><TranslatedText xml:lang="en">Medications Criteria</TranslatedText></Decode></CodeListItem></CodeList><CodeList OID="CL.ELEMENT" Name="Study Element" DataType="text"><CodeListItem CodedValue="Screening"><Decode><TranslatedText xml:lang="en">Screening</TranslatedText></Decode></CodeListItem><CodeListItem CodedValue="Placebo"><Decode><TranslatedText xml:lang="en">Placebo</TranslatedText></Decode></CodeListItem><CodeListItem CodedValue="Follow up"><Decode><TranslatedText xml:lang="en">Follow up</TranslatedText></Decode></CodeListItem><CodeListItem CodedValue="Low"><Decode><TranslatedText xml:lang="en">Low</TranslatedText></Decode></CodeListItem><CodeListItem CodedValue="High - Start"><Decode><TranslatedText xml:lang="en">High - Start</TranslatedText></Decode></CodeListItem><CodeListItem CodedValue="High - Middle"><Decode><TranslatedText xml:lang="en">High - Middle</TranslatedText></Decode></CodeListItem><CodeListItem CodedValue="High - End"><Decode><TranslatedText xml:lang="en">High - End</TranslatedText></Decode></CodeListItem></CodeList><CodeList OID="CL.ETCD" Name="Study Element Code" DataType="text"><CodeListItem CodedValue="EL1"><Decode><TranslatedText xml:lang="en">Screening</TranslatedText></Decode></CodeListItem><CodeListItem CodedValue="EL2"><Decode><TranslatedText xml:lang="en">Placebo</TranslatedText></Decode></CodeListItem><CodeListItem CodedValue="EL7"><Decode><TranslatedText xml:lang="en">Follow up</TranslatedText></Decode></CodeListItem><CodeListItem CodedValue="EL3"><Decode><TranslatedText xml:lang="en">Low</TranslatedText></Decode></CodeListItem><CodeListItem CodedValue="EL4"><Decode><TranslatedText xml:lang="en">High - Start</TranslatedText></Decode></CodeListItem><CodeListItem CodedValue="EL5"><Decode><TranslatedText xml:lang="en">High - Middle</TranslatedText></Decode></CodeListItem><CodeListItem CodedValue="EL6"><Decode><TranslatedText xml:lang="en">High - End</TranslatedText></Decode></CodeListItem></CodeList><CodeList OID="CL.NCOMPLT" Name="Completion/Reason for Non-Completion" DataType="text"><CodeListItem CodedValue="ADVERSE EVENT"><Decode><TranslatedText xml:lang="en">ADVERSE EVENT</TranslatedText></Decode></CodeListItem><CodeListItem CodedValue="APPROVED DRUG AVAILABLE FOR INDICATION"><Decode><TranslatedText xml:lang="en">APPROVED DRUG AVAILABLE FOR INDICATION</TranslatedText></Decode></CodeListItem><CodeListItem CodedValue="COMPLETED"><Decode><TranslatedText xml:lang="en">COMPLETED</TranslatedText></Decode></CodeListItem><CodeListItem CodedValue="DEATH"><Decode><TranslatedText xml:lang="en">Died</TranslatedText></Decode></CodeListItem><CodeListItem CodedValue="DISEASE RELAPSE"><Decode><TranslatedText xml:lang="en">Recurrent Disease</TranslatedText></Decode></CodeListItem><CodeListItem CodedValue="FAILURE TO MEET CONTINUATION CRITERIA"><Decode><TranslatedText xml:lang="en">FAILURE TO MEET CONTINUATION CRITERIA</TranslatedText></Decode></CodeListItem><CodeListItem CodedValue="FAILURE TO MEET RANDOMIZATION CRITERIA"><Decode><TranslatedText xml:lang="en">FAILURE TO MEET RANDOMIZATION CRITERIA</TranslatedText></Decode></CodeListItem><CodeListItem CodedValue="LACK OF EFFICACY"><Decode><TranslatedText xml:lang="en">LACK OF EFFICACY</TranslatedText></Decode></CodeListItem><CodeListItem CodedValue="LOGISTICAL PROBLEM"><Decode><TranslatedText xml:lang="en">LOGISTICAL PROBLEM</TranslatedText></Decode></CodeListItem><CodeListItem CodedValue="LOST TO FOLLOW-UP"><Decode><TranslatedText xml:lang="en">LOST TO FOLLOW-UP</TranslatedText></Decode></CodeListItem><CodeListItem CodedValue="MET ELIGIBILITY CRITERIA BUT NOT NEEDED"><Decode><TranslatedText xml:lang="en">Passed Screening But Not Needed</TranslatedText></Decode></CodeListItem><CodeListItem CodedValue="NEVER DOSED"><Decode><TranslatedText xml:lang="en">NEVER DOSED</TranslatedText></Decode></CodeListItem><CodeListItem CodedValue="NO LONGER CLINICALLY BENEFITING"><Decode><TranslatedText xml:lang="en">NLCB</TranslatedText></Decode></CodeListItem><CodeListItem CodedValue="NON-COMPLIANCE WITH NON-STUDY DEVICE"><Decode><TranslatedText xml:lang="en">NON-COMPLIANCE WITH NON-STUDY DEVICE</TranslatedText></Decode></CodeListItem><CodeListItem CodedValue="NON-COMPLIANCE WITH STUDY DEVICE"><Decode><TranslatedText xml:lang="en">NON-COMPLIANCE WITH STUDY DEVICE</TranslatedText></Decode></CodeListItem><CodeListItem CodedValue="NON-COMPLIANCE WITH STUDY DRUG"><Decode><TranslatedText xml:lang="en">NON-COMPLIANCE WITH STUDY DRUG</TranslatedText></Decode></CodeListItem><CodeListItem CodedValue="NON-COMPLIANCE WITH STUDY SCHEDULE"><Decode><TranslatedText xml:lang="en">NON-COMPLIANCE WITH STUDY SCHEDULE</TranslatedText></Decode></CodeListItem><CodeListItem CodedValue="NON-COMPLIANCE"><Decode><TranslatedText xml:lang="en">NON-COMPLIANCE</TranslatedText></Decode></CodeListItem><CodeListItem CodedValue="PARTNER PREGNANCY"><Decode><TranslatedText xml:lang="en">PARTNER PREGNANCY</TranslatedText></Decode></CodeListItem><CodeListItem CodedValue="PHYSICIAN DECISION"><Decode><TranslatedText xml:lang="en">PHYSICIAN DECISION</TranslatedText></Decode></CodeListItem><CodeListItem CodedValue="PREGNANCY"><Decode><TranslatedText xml:lang="en">Subject Pregnancy</TranslatedText></Decode></CodeListItem><CodeListItem CodedValue="PROGRESSIVE DISEASE"><Decode><TranslatedText xml:lang="en">Disease Progression</TranslatedText></Decode></CodeListItem><CodeListItem CodedValue="PROTOCOL DEVIATION"><Decode><TranslatedText xml:lang="en">PROTOCOL DEVIATION</TranslatedText></Decode></CodeListItem><CodeListItem CodedValue="PROTOCOL VIOLATION"><Decode><TranslatedText xml:lang="en">PROTOCOL VIOLATION</TranslatedText></Decode></CodeListItem><CodeListItem CodedValue="PROTOCOL-SPECIFIED WITHDRAWAL CRITERION MET"><Decode><TranslatedText xml:lang="en">PROTOCOL-SPECIFIED WITHDRAWAL CRITERION MET</TranslatedText></Decode></CodeListItem><CodeListItem CodedValue="RANDOMIZED BY MISTAKE WITH STUDY TREATMENT"><Decode><TranslatedText xml:lang="en">RANDOMIZED BY MISTAKE WITH STUDY TREATMENT</TranslatedText></Decode></CodeListItem><CodeListItem CodedValue="RANDOMIZED BY MISTAKE WITHOUT STUDY TREATMENT"><Decode><TranslatedText xml:lang="en">RANDOMIZED BY MISTAKE WITHOUT STUDY TREATMENT</TranslatedText></Decode></CodeListItem><CodeListItem CodedValue="RANDOMIZED BY MISTAKE"><Decode><TranslatedText xml:lang="en">Randomized in Error</TranslatedText></Decode></CodeListItem><CodeListItem CodedValue="RECOVERY"><Decode><TranslatedText xml:lang="en">RECOVERY</TranslatedText></Decode></CodeListItem><CodeListItem CodedValue="REQUIRES PROHIBITED MEDICATION"><Decode><TranslatedText xml:lang="en">REQUIRES PROHIBITED MEDICATION</